LabVIEW Measurement	
Writer_Version	2
Reader_Version	2
Separator	Tab
Decimal_Separator	.
Multi_Headings	No
X_Columns	No
Time_Pref	Absolute
Operator	mechlab
Description	Data file
Date	2022/03/16
Time	21:18:53.3907999992370605469
***End_of_Header***	
	
Channels	6						
Samples	1	1	1	1	1	1	
Date	2022/03/16	2022/03/16	2022/03/16	2022/03/16	2022/03/16	2022/03/16	
Time	21:18:53.3907999992370605469	21:18:53.5988001823425292969	21:18:53.8077998161315917969	21:18:54.0148000717163085938	21:18:54.2227997779846191406	21:18:54.4317998886108398438	
X_Dimension	Time	Time	Time	Time	Time	Time	
X0	0.0000000000000000E+0	0.0000000000000000E+0	0.0000000000000000E+0	0.0000000000000000E+0	0.0000000000000000E+0	0.0000000000000000E+0	
Delta_X	1.000000	1.000000	1.000000	1.000000	1.000000	1.000000	
***End_of_Header***							
X_Value	Untitled	Untitled 1	Untitled 2	Untitled 3	Untitled 4	Untitled 5	Comment
	0.000000	368.836766	-10.902686	40.689955	2.421284E-6	1.196481E-6
	1.047000	372.751014	-10.909071	30.502006	1.206217E-6	5.990138E-7
	2.093000	370.089454	-10.907548	27.838227	-8.843815E-9	3.586365E-6
	3.136000	359.982612	-10.907501	27.831396	-6.163719E-7	1.793950E-6
	4.177000	370.876812	-10.907865	27.841062	1.813750E-6	1.548135E-9
	5.234000	370.414702	-10.904858	27.844125	-8.843815E-9	1.196481E-6
	6.295000	372.594830	-10.905544	27.835372	1.813750E-6	1.793950E-6
	7.338000	374.956904	-10.906238	27.838436	3.028820E-6	1.793950E-6
	8.382000	381.110855	-10.906810	27.835491	-1.831423E-6	1.548135E-9
	9.426000	383.641993	-10.905750	27.845920	-1.223898E-6	2.391420E-6
	10.469000	375.261220	-10.905319	27.837418	-1.831423E-6	1.793950E-6
	11.513000	375.121138	-10.900668	27.838740	-1.831423E-6	1.196481E-6
	12.555000	375.890785	-10.904057	27.847459	-3.046468E-6	2.391420E-6
	13.599000	387.406498	-10.904536	27.838037	-1.223898E-6	2.988892E-6
	14.642000	389.077822	-10.900038	27.838232	-3.653989E-6	2.988892E-6
	15.689000	384.255456	-10.891823	27.841761	-4.261507E-6	1.196481E-6
	16.734000	394.070863	-10.884734	27.839950	-2.438947E-6	2.391420E-6
	17.779000	394.814747	-10.874225	27.843680	-5.476540E-6	2.988892E-6
	18.821000	398.305528	-10.859063	27.842004	-3.653989E-6	2.391420E-6
	19.861000	388.258262	-10.842791	27.843901	-5.476540E-6	3.586365E-6
	20.903000	399.165342	-10.816898	27.850841	-4.261507E-6	4.183840E-6
	21.948000	404.874895	-10.799909	27.848060	-3.046468E-6	2.391420E-6
	22.998000	395.577953	-10.782946	27.845429	-4.869024E-6	2.988892E-6
	24.042000	404.786337	-10.765364	27.841083	-1.831423E-6	2.391420E-6
	25.087000	407.174173	-10.743450	27.848487	-1.831423E-6	3.586365E-6
	26.131000	415.894685	-10.725213	27.844192	-8.843815E-9	1.793950E-6
	27.174000	414.836824	-10.707102	27.849569	5.986858E-7	1.548135E-9
	28.219000	419.377416	-10.692425	27.849960	3.636357E-6	1.548135E-9
	29.282000	427.780731	-10.671324	27.852752	6.674068E-6	5.990138E-7
	30.324000	449.829973	-10.657925	27.843719	1.031937E-5	1.548135E-9
	31.386000	469.985691	-10.642583	27.846281	1.031937E-5	-2.985758E-6
	32.430000	512.752591	-10.627301	27.841362	1.700258E-5	-2.985758E-6
	33.484000	565.914546	-10.618306	27.841508	2.368597E-5	-5.973025E-6
	34.526000	672.362439	-10.609366	27.846205	2.611634E-5	-5.973025E-6
	35.570000	737.922464	-10.602822	27.850229	2.854673E-5	-5.375575E-6
	36.614000	782.428314	-10.601456	27.846203	3.158477E-5	-7.167922E-6
	37.659000	802.616235	-10.597118	27.842023	3.279999E-5	-7.167922E-6
	38.699000	814.233387	-10.598042	27.842946	3.158477E-5	-7.167922E-6
	39.742000	832.477871	-10.594157	27.839394	3.462283E-5	-7.765368E-6
	40.786000	853.345271	-10.592993	27.841547	3.523045E-5	-9.557696E-6
	41.828000	878.294373	-10.593310	27.843836	3.887620E-5	-1.015514E-5
	42.869000	952.283476	-10.584965	27.841793	4.556021E-5	-1.015514E-5
	43.913000	1072.048828	-10.575375	27.842550	5.528274E-5	-1.433717E-5
	44.958000	1246.605597	-10.561777	27.843378	6.318259E-5	-1.553203E-5
	46.019000	1434.900073	-10.542328	27.845648	7.229814E-5	-1.792172E-5
	47.063000	1559.896767	-10.527288	27.839380	7.776763E-5	-1.911655E-5
	48.122000	1683.212478	-10.508078	27.850694	8.445274E-5	-2.031138E-5
	49.167000	1768.989409	-10.505598	27.847514	8.627599E-5	-2.270102E-5
	50.211000	1830.416209	-10.494303	27.852886	8.992252E-5	-2.150620E-5
	51.253000	1880.346618	-10.485647	27.850802	9.417687E-5	-2.270102E-5
	52.304000	1930.012964	-10.480754	27.854703	9.660797E-5	-2.270102E-5
	53.345000	1979.313808	-10.472685	27.848512	9.782353E-5	-2.509064E-5
	54.407000	2089.787052	-10.460077	27.853893	0.000109	-2.688283E-5
	55.446000	2322.110783	-10.425528	27.851219	0.000123	-3.106457E-5
	56.499000	2534.597603	-10.397601	27.851328	0.000131	-3.405148E-5
	57.541000	2684.456460	-10.376501	27.858154	0.000139	-3.405148E-5
	58.585000	2792.504838	-10.356218	27.857405	0.000143	-3.584361E-5
	59.630000	2872.113331	-10.346354	27.854273	0.000143	-3.644098E-5
	60.672000	2921.655698	-10.340852	27.859659	0.000148	-3.584361E-5
	61.714000	2944.994663	-10.335385	27.864371	0.000148	-3.644098E-5
	62.756000	2971.782546	-10.325013	27.866269	0.000148	-3.763573E-5
	63.801000	2987.476571	-10.328161	27.862347	0.000148	-3.883046E-5
	64.848000	2980.912034	-10.324229	27.866446	0.000149	-3.823309E-5
	65.890000	2979.565958	-10.325166	27.858072	0.000151	-3.703836E-5
	66.932000	2988.584347	-10.318800	27.865153	0.000148	-3.703836E-5
	67.975000	2966.527052	-10.324076	27.866095	0.000150	-3.763573E-5
	69.017000	2969.227255	-10.320480	27.876004	0.000149	-3.644098E-5
	70.062000	2945.888290	-10.318405	27.866205	0.000148	-3.644098E-5
	71.105000	2924.661828	-10.317901	27.863749	0.000146	-3.524624E-5
	72.149000	2921.156555	-10.322081	27.862893	0.000143	-3.584361E-5
	73.197000	2914.886674	-10.321594	27.863769	0.000144	-3.584361E-5
	74.238000	2901.981409	-10.319380	27.863155	0.000143	-3.644098E-5
	75.289000	2885.559601	-10.325575	27.864651	0.000147	-3.584361E-5
	76.332000	2881.046382	-10.321243	27.868089	0.000143	-3.584361E-5
	77.375000	2871.081231	-10.321260	27.868230	0.000145	-3.524624E-5
	78.417000	2854.533833	-10.323014	27.863192	0.000142	-3.464886E-5
	79.473000	2840.912057	-10.320458	27.860558	0.000142	-3.464886E-5
	80.518000	2820.329650	-10.318835	27.863174	0.000141	-3.524624E-5
	81.564000	2779.918381	-10.325924	27.864747	0.000136	-3.345410E-5
	82.608000	2666.155620	-10.328234	27.864205	0.000126	-3.046719E-5
	83.650000	2466.255254	-10.335086	27.860729	0.000114	-2.688283E-5
	84.695000	2183.587307	-10.346610	27.862456	3.636357E-6	5.378794E-6
	85.738000	395.577953	-10.616168	27.858523	-2.438947E-6	4.781316E-6
	86.781000	409.001681	-10.584146	27.857265	5.986858E-7	2.988892E-6
	87.845000	415.820619	-10.556127	27.853963	4.851437E-6	3.586365E-6
	88.888000	422.559050	-10.529500	27.852517	6.674068E-6	1.793950E-6
	89.936000	443.862798	-10.511242	27.844857	6.674068E-6	1.196481E-6
	90.980000	457.241442	-10.491598	27.849752	9.104264E-6	1.793950E-6
	92.024000	468.602582	-10.482978	27.847965	1.092693E-5	-1.790840E-6
	93.066000	513.533508	-10.467639	27.850417	1.700258E-5	-1.193379E-6
	94.110000	590.631789	-10.457650	27.851958	2.004046E-5	-4.180669E-6
	95.154000	691.292842	-10.449714	27.848968	2.611634E-5	-3.583214E-6
	96.196000	770.212190	-10.447608	27.852267	2.854673E-5	-5.375575E-6
	97.240000	833.590477	-10.442424	27.850192	3.523045E-5	-5.973025E-6
	98.283000	904.277185	-10.437893	27.847643	3.583807E-5	-7.167922E-6
	99.329000	960.780179	-10.437191	27.851908	4.191436E-5	-8.960255E-6
	100.374000	1026.935956	-10.431098	27.848509	4.191436E-5	-9.557696E-6
	101.418000	1076.871194	-10.430594	27.850238	4.616785E-5	-8.960255E-6
	102.464000	1128.679024	-10.426607	27.848918	4.738315E-5	-9.557696E-6
	103.507000	1174.918993	-10.423474	27.856772	5.163674E-5	-8.960255E-6
	104.552000	1219.819327	-10.420725	27.851499	4.981377E-5	-1.373974E-5
	105.597000	1281.825776	-10.418548	27.855386	5.345974E-5	-1.433717E-5
	106.642000	1343.651890	-10.410216	27.852552	5.892879E-5	-1.433717E-5
	107.686000	1430.927860	-10.410404	27.848540	6.500568E-5	-1.493460E-5
	108.736000	1548.711132	-10.399993	27.866069	7.594445E-5	-1.971397E-5
	109.781000	1868.107952	-10.381436	27.863498	0.000105	-2.748023E-5
	110.823000	2461.465091	-10.344322	27.860128	0.000128	-3.285672E-5
	111.869000	2762.437102	-10.326496	27.864240	0.000134	-3.345410E-5
	112.912000	2921.196808	-10.319855	27.866230	0.000142	-3.644098E-5
	113.956000	3050.901557	-10.312969	27.858812	0.000146	-3.763573E-5
	114.998000	3113.878926	-10.302409	27.863232	0.000146	-3.823309E-5
	116.041000	3163.864082	-10.297716	27.862627	0.000153	-3.942783E-5
	117.083000	3203.985527	-10.296714	27.863878	0.000154	-3.883046E-5
	118.128000	3255.650058	-10.288038	27.864917	0.000159	-4.121991E-5
	119.172000	3437.652127	-10.275077	27.872940	0.000186	-4.898546E-5
	120.215000	3944.189007	-10.216493	27.865298	0.000207	-5.316681E-5
	121.257000	4268.208578	-10.181000	27.866193	0.000217	-5.675076E-5
	122.301000	4456.380714	-10.153232	27.872908	0.000225	-5.914003E-5
	123.347000	4588.986949	-10.138870	27.864169	0.000230	-5.973734E-5
	124.388000	4662.832764	-10.125365	27.865881	0.000233	-6.093197E-5
	125.433000	4695.492828	-10.117173	27.864155	0.000236	-5.914003E-5
	126.478000	4755.238654	-10.107859	27.868615	0.000238	-6.093197E-5
	127.529000	4801.494734	-10.103058	27.862691	0.000240	-6.093197E-5
	128.583000	4827.910679	-10.102524	27.870513	0.000242	-6.272389E-5
	129.626000	4849.866538	-10.091492	27.870778	0.000243	-6.152927E-5
	130.684000	4852.716484	-10.095237	27.863050	0.000243	-6.332119E-5
	131.727000	4871.245966	-10.090980	27.864641	0.000244	-6.152927E-5
	132.786000	4878.581761	-10.089014	27.867263	0.000246	-6.212658E-5
	133.830000	4919.049391	-10.086919	27.868684	0.000247	-6.212658E-5
	134.873000	4891.144067	-10.086626	27.870077	0.000245	-6.212658E-5
	135.924000	4905.675574	-10.079309	27.866770	0.000248	-6.272389E-5
	136.967000	4925.243597	-10.081555	27.864487	0.000249	-6.152927E-5
	138.015000	4941.689559	-10.079248	27.874136	0.000249	-6.332119E-5
	139.059000	4953.617471	-10.079470	27.866282	0.000250	-6.332119E-5
	140.107000	4963.928803	-10.077127	27.874140	0.000251	-6.332119E-5
	141.149000	4978.154383	-10.072282	27.869766	0.000251	-6.212658E-5
	142.193000	5010.180053	-10.070923	27.869314	0.000251	-6.391850E-5
	143.236000	5023.534548	-10.069576	27.870657	0.000254	-6.212658E-5
	144.277000	5051.784442	-10.069645	27.867963	0.000255	-6.511310E-5
	145.321000	5076.981512	-10.063630	27.869819	0.000260	-6.332119E-5
	146.365000	5118.405565	-10.064386	27.867440	0.000258	-6.571040E-5
	147.407000	5147.627983	-10.057803	27.870604	0.000263	-6.809957E-5
	148.450000	5202.606190	-10.049910	27.864427	0.000266	-6.869686E-5
	149.493000	5575.338957	-9.889217	27.874379	0.000260	-5.077748E-5
	150.540000	3463.366048	-9.927723	27.863527	0.000202	-5.077748E-5
	151.581000	3687.634271	-9.917238	27.869655	0.000213	-5.316681E-5
	152.624000	3833.066865	-9.913494	27.874362	0.000216	-5.436146E-5
	153.671000	3889.259110	-9.912632	27.878315	0.000218	-5.495879E-5
	154.714000	3942.491920	-9.909248	27.871689	0.000220	-5.615344E-5
	155.758000	3970.274871	-9.912188	27.870998	0.000224	-5.555612E-5
	156.803000	3998.127057	-9.906951	27.869016	0.000227	-5.734808E-5
	157.846000	4043.078922	-9.913449	27.871987	0.000225	-5.794540E-5
	158.888000	4089.510504	-9.909350	27.883198	0.000229	-5.854271E-5
	159.940000	4143.158730	-9.904402	27.873483	0.000233	-5.914003E-5
	160.998000	4220.450241	-9.902314	27.880142	0.000240	-6.152927E-5
	162.042000	4347.879875	-9.897327	27.869097	0.000252	-6.571040E-5
	163.099000	4641.854260	-9.888005	27.877329	0.000273	-6.989144E-5
	164.143000	5045.913874	-9.876206	27.880775	0.000289	-7.407241E-5
	165.186000	5281.997329	-9.865848	27.878587	0.000298	-7.586424E-5
	166.232000	5434.788281	-9.862913	27.876168	0.000308	-7.944784E-5
	167.279000	5785.515280	-9.844491	27.878413	0.000558	-0.000136
	168.332000	8222.801400	-9.698884	27.883807	0.000359	-8.422589E-5
	169.374000	5154.520990	-9.765472	27.877522	0.000313	-7.646151E-5
	170.432000	4671.783528	-9.775133	27.876453	0.000311	-7.466969E-5
	171.477000	4613.353185	-9.775758	27.877120	0.000305	-7.646151E-5
	172.534000	4631.544538	-9.774894	27.876085	0.000308	-7.526696E-5
	173.578000	4641.569265	-9.774497	27.874645	0.000306	-7.526696E-5
	174.632000	4657.704470	-9.776377	27.868176	0.000308	-7.526696E-5
	175.677000	4696.817972	-9.774718	27.870145	0.000314	-7.705878E-5
	176.733000	4836.594160	-9.769937	27.877624	0.000328	-8.123962E-5
	177.776000	5136.244299	-9.760898	27.874386	0.000341	-8.482314E-5
	178.834000	5362.868187	-9.757914	27.873035	0.000353	-8.900385E-5
	179.877000	5653.942739	-9.742133	27.874305	0.000369	-9.199002E-5
	180.929000	5963.607971	-9.734598	27.871096	0.000387	-9.617060E-5
	181.969000	6212.822137	-9.729534	27.878468	0.000396	-9.796225E-5
	183.013000	6419.349901	-9.723033	27.873380	0.000412	-0.000121
	184.062000	9961.438861	-9.504169	27.886229	0.000589	-0.000142
	185.104000	7623.033952	-9.597953	27.885457	0.000511	-0.000127
	186.147000	6745.833069	-9.615772	27.881482	0.000494	-0.000124
	187.190000	6584.870636	-9.621790	27.890763	0.000491	-0.000123
	188.236000	6536.444078	-9.621434	27.887359	0.000490	-0.000123
	189.281000	6539.284364	-9.620300	27.883494	0.000491	-0.000124
	190.326000	6535.698584	-9.619140	27.883034	0.000489	-0.000124
	191.374000	6553.608166	-9.619399	27.883596	0.000491	-0.000123
	192.419000	6548.367162	-9.616133	27.882240	0.000490	-0.000124
	193.473000	6557.037763	-9.622205	27.880273	0.000492	-0.000125
	194.517000	6575.010141	-9.619731	27.880598	0.000491	-0.000125
	195.562000	6596.787279	-9.620697	27.882258	0.000498	-0.000127
	196.607000	6888.119496	-9.608475	27.883886	0.000535	-0.000137
	197.650000	7525.416007	-9.595121	27.880351	0.000549	-0.000140
	198.695000	7736.951342	-9.591403	27.886760	0.000557	-0.000140
	199.737000	7842.186861	-9.586629	27.882694	0.000561	-0.000140
	200.779000	8013.893786	-9.578663	27.888819	0.000591	-0.000201
	201.820000	12340.135274	-9.369865	27.893002	0.000869	-0.000233
	202.873000	9479.581758	-9.435515	27.893170	0.000809	-0.000226
	203.917000	8896.226353	-9.451668	27.887924	0.000799	-0.000223
	204.960000	8775.543132	-9.448102	27.893244	0.000795	-0.000223
	206.002000	8725.652942	-9.453960	27.897281	0.000794	-0.000223
	207.044000	8722.411730	-9.454021	27.897896	0.000792	-0.000222
	208.089000	8720.487613	-9.455970	27.893510	0.000794	-0.000222
	209.133000	8731.253009	-9.453437	27.888938	0.000794	-0.000223
	210.189000	8724.598301	-9.455826	27.890082	0.000793	-0.000222
	211.232000	8735.083533	-9.453415	27.888665	0.000794	-0.000223
	212.275000	8728.087474	-9.453719	27.891661	0.000794	-0.000222
	213.321000	8744.256501	-9.452788	27.892170	0.000794	-0.000223
	214.365000	8746.937384	-9.456022	27.892978	0.000794	-0.000223
	215.408000	8750.980445	-9.450556	27.895814	0.000794	-0.000223
	216.450000	8752.986680	-9.455608	27.897849	0.000793	-0.000223
	217.496000	8785.382698	-9.447862	27.892120	0.000796	-0.000223
	218.538000	8801.183003	-9.451381	27.890933	0.000802	-0.000226
	219.581000	9029.249691	-9.399242	27.899791	0.001361	-0.000421
	220.639000	11274.653408	-9.284825	27.896786	0.001243	-0.000399
	221.683000	10034.912729	-9.314523	27.906811	0.001225	-0.000395
	222.735000	9828.806704	-9.313583	27.913392	0.001219	-0.000395
	223.779000	9778.721678	-9.322078	27.920288	0.001218	-0.000395
	224.822000	9768.138225	-9.317801	27.928959	0.001219	-0.000395
	225.874000	9759.936170	-9.319713	27.928477	0.001218	-0.000394
	226.921000	9771.567824	-9.320680	27.927804	0.001217	-0.000395
	227.966000	9773.764056	-9.319112	27.933688	0.001218	-0.000396
	229.015000	9772.482384	-9.320628	27.929633	0.001216	-0.000393
	230.059000	9778.249907	-9.322539	27.925622	0.001217	-0.000395
	231.118000	9791.723561	-9.322322	27.928685	0.001217	-0.000395
	232.164000	9792.441684	-9.320973	27.931556	0.001219	-0.000395
	233.220000	9800.096292	-9.318436	27.922805	0.001217	-0.000394
	234.262000	9819.477552	-9.320742	27.929118	0.001221	-0.000396
	235.306000	9881.849560	-9.321572	27.927637	0.001441	-0.000691
	236.363000	13587.273596	-9.118592	27.935501	0.001671	-0.000680
	237.404000	11455.713750	-9.161403	27.943239	0.001637	-0.000673
	238.450000	11070.134928	-9.172456	27.949854	0.001625	-0.000672
	239.494000	10998.256634	-9.171120	27.961672	0.001620	-0.000671
	240.550000	10982.391917	-9.173874	27.966160	0.001616	-0.000669
	241.594000	10981.760741	-9.170718	27.968137	0.001611	-0.000668
	242.636000	10986.383456	-9.174984	27.972612	0.001611	-0.000666
	243.693000	10994.997709	-9.172105	27.977638	0.001608	-0.000666
	244.737000	10988.549095	-9.174456	27.977782	0.001604	-0.000666
	245.779000	10989.544162	-9.174023	27.971029	0.001603	-0.000666
	246.821000	11002.858416	-9.168156	27.976078	0.001603	-0.000665
	247.865000	11003.579759	-9.173216	27.975495	0.001602	-0.000665
	248.910000	11006.336321	-9.175320	27.972545	0.001600	-0.000665
	249.953000	11005.131935	-9.168711	27.969016	0.001602	-0.000666
	250.995000	11021.165717	-9.169458	27.970517	0.001598	-0.000666
	252.040000	11029.762258	-9.169762	27.974275	0.001598	-0.000665
	253.081000	11058.200565	-9.172333	27.973687	0.001601	-0.000666
	254.125000	11126.275707	-9.169782	27.976081	0.001615	-0.000703
	255.170000	14667.471163	-8.948767	27.978975	0.001608	-0.000897
	256.214000	12120.579633	-9.000762	27.981210	0.001552	-0.000878
	257.259000	11425.673351	-9.015190	28.000668	0.001539	-0.000874
	258.298000	11305.154305	-9.025701	28.005301	0.001532	-0.000869
	259.339000	11285.966256	-9.018308	28.021040	0.001527	-0.000865
	260.382000	11293.868827	-9.021588	28.025090	0.001522	-0.000864
	261.427000	11305.225151	-9.019491	28.022850	0.001515	-0.000860
	262.471000	11292.079961	-9.023035	28.026334	0.001513	-0.000858
	263.517000	11309.382534	-9.019263	28.024666	0.001509	-0.000856
	264.561000	11302.035462	-9.019668	28.025974	0.001507	-0.000854
	265.603000	11322.297475	-9.018837	28.022269	0.001502	-0.000853
	266.648000	11331.130707	-9.021167	28.027461	0.001500	-0.000852
	267.691000	11329.208199	-9.013980	28.031268	0.001500	-0.000851
	268.746000	11343.019988	-9.016844	28.024607	0.001497	-0.000850
	269.789000	11344.124544	-9.019477	28.027123	0.001494	-0.000850
	270.832000	11368.972239	-9.019393	28.024631	0.001493	-0.000849
	271.879000	11419.620831	-9.016778	28.022280	0.001494	-0.000849
	272.926000	11560.777056	-8.995662	28.021378	0.000842	-0.000531
	273.967000	13178.914292	-8.846059	28.039360	0.000727	-0.000494
	275.009000	11649.291337	-8.875496	28.054320	0.000705	-0.000482
	276.055000	11375.784745	-8.875110	28.063157	0.000695	-0.000476
	277.097000	11324.665991	-8.878030	28.078466	0.000687	-0.000472
	278.143000	11314.011690	-8.882519	28.082878	0.000684	-0.000466
	279.186000	11322.291034	-8.880904	28.092194	0.000677	-0.000464
	280.230000	11324.039647	-8.880690	28.080369	0.000672	-0.000458
	281.275000	11320.526320	-8.880278	28.087737	0.000670	-0.000456
	282.320000	11329.849035	-8.876205	28.087324	0.000665	-0.000454
	283.362000	11335.138348	-8.880304	28.084404	0.000660	-0.000451
	284.405000	11346.472130	-8.877512	28.082429	0.000656	-0.000449
	285.460000	11364.790703	-8.877890	28.084928	0.000655	-0.000446
	286.503000	11385.350592	-8.877515	28.085699	0.000655	-0.000445
	287.547000	11403.215105	-8.878925	28.083412	0.000650	-0.000445
	288.593000	11522.618326	-8.871610	28.085105	0.000689	-0.000488
	289.637000	15572.878405	-8.645801	28.094506	0.000294	-0.000180
	290.681000	12268.603133	-8.719301	28.110104	0.000281	-0.000176
	291.721000	11570.909674	-8.735100	28.129962	0.000276	-0.000175
	292.766000	11441.501036	-8.737384	28.139927	0.000273	-0.000172
	293.810000	11417.643578	-8.744796	28.156674	0.000266	-0.000170
	294.854000	11408.723397	-8.745416	28.162128	0.000264	-0.000169
	295.899000	11400.709726	-8.736955	28.169101	0.000260	-0.000166
	296.942000	11410.719972	-8.739046	28.166142	0.000259	-0.000165
	297.997000	11417.476123	-8.737181	28.165503	0.000255	-0.000165
	299.040000	11424.378797	-8.741791	28.161553	0.000254	-0.000164
	300.086000	11424.934296	-8.741076	28.166683	0.000252	-0.000163
	301.132000	11435.144200	-8.738732	28.160750	0.000247	-0.000161
	302.174000	11443.070923	-8.739132	28.160176	0.000247	-0.000158
	303.220000	11455.937559	-8.742872	28.162914	0.000245	-0.000159
	304.267000	11469.040886	-8.739447	28.162775	0.000244	-0.000156
	305.311000	11541.117235	-8.740271	28.169176	0.000246	-0.000161
	306.354000	14605.690080	-8.565420	28.170853	0.000246	-0.000127
	307.399000	13275.849644	-8.560776	28.174204	0.000229	-0.000120
	308.465000	12262.455613	-8.579623	28.188035	0.000230	-0.000121
	309.518000	12068.375634	-8.585419	28.205806	0.000230	-0.000121
	310.563000	12053.760384	-8.586994	28.204278	0.000229	-0.000122
	311.606000	12040.364009	-8.585689	28.216010	0.000225	-0.000122
	312.650000	12037.552703	-8.585695	28.210777	0.000224	-0.000122
	313.693000	12047.931673	-8.590464	28.213735	0.000221	-0.000122
	314.738000	12045.340956	-8.587431	28.212300	0.000221	-0.000120
	315.788000	12054.911635	-8.588663	28.215770	0.000221	-0.000121
	316.830000	12058.296151	-8.588064	28.217681	0.000218	-0.000119
	317.873000	12070.248229	-8.587331	28.215273	0.000218	-0.000120
	318.922000	12064.770529	-8.586874	28.213761	0.000218	-0.000121
	319.976000	12054.792484	-8.589540	28.217456	0.000215	-0.000118
	321.028000	12079.376119	-8.589702	28.216124	0.000212	-0.000117
	322.072000	12084.855429	-8.582372	28.227257	0.000212	-0.000117
	323.116000	12096.701238	-8.581607	28.213181	0.000213	-0.000117
	324.160000	12126.628932	-8.581209	28.216673	0.000211	-0.000117
	325.205000	12271.044106	-8.579131	28.218583	0.000212	-0.000117
	326.248000	13020.260599	-8.556613	28.216292	0.000209	-0.000114
	327.291000	13502.688012	-8.545600	28.217491	0.000208	-0.000113
	328.335000	13715.828918	-8.538639	28.221383	0.000209	-0.000114
	329.379000	16283.770962	-8.298728	28.225251	0.000192	-6.272389E-5
	330.433000	12051.778302	-8.395248	28.247284	0.000182	-5.914003E-5
	331.478000	11084.569841	-8.416689	28.255987	0.000179	-6.152927E-5
	332.522000	10895.576348	-8.424496	28.272916	0.000182	-6.272389E-5
	333.564000	10858.604297	-8.422979	28.285733	0.000183	-6.391850E-5
	334.608000	10859.894020	-8.424945	28.301791	0.000184	-7.228058E-5
	335.652000	10860.055033	-8.425962	28.299587	0.000181	-7.228058E-5
	336.699000	10861.186962	-8.425034	28.295120	0.000182	-7.347514E-5
	337.743000	10887.049043	-8.428324	28.299656	0.000180	-7.347514E-5
	338.787000	10900.891423	-8.424935	28.295618	0.000180	-7.347514E-5
	339.830000	10939.732848	-8.421405	28.296743	0.000182	-7.347514E-5
	340.873000	16292.047096	-8.209967	28.296872	0.000185	-6.212658E-5
	341.916000	14130.234360	-8.251834	28.314439	0.000179	-6.212658E-5
	342.961000	13638.004324	-8.260735	28.319651	0.000176	-6.332119E-5
	344.005000	13537.782661	-8.259373	28.327252	0.000180	-6.451580E-5
	345.053000	13491.853368	-8.261989	28.343386	0.000179	-6.391850E-5
	346.093000	13483.041063	-8.265214	28.350094	0.000176	-6.391850E-5
	347.136000	13473.694190	-8.262902	28.342336	0.000176	-6.511310E-5
	348.181000	13463.830462	-8.265269	28.341479	0.000173	-6.332119E-5
	349.243000	13473.288434	-8.264455	28.350802	0.000173	-6.511310E-5
	350.287000	13466.838206	-8.262708	28.344403	0.000174	-6.332119E-5
	351.344000	13470.019847	-8.266166	28.343615	0.000172	-6.451580E-5
	352.389000	13471.163047	-8.264760	28.349521	0.000172	-6.571040E-5
	353.444000	13472.919712	-8.261754	28.344766	0.000170	-6.451580E-5
	354.493000	13473.958254	-8.262932	28.345316	0.000170	-6.391850E-5
	355.545000	13480.579156	-8.266602	28.350604	0.000168	-6.511310E-5
	356.584000	13482.925133	-8.260214	28.343566	0.000170	-6.391850E-5
	357.627000	13490.890503	-8.264103	28.346313	0.000170	-6.451580E-5
	358.672000	13488.116229	-8.261951	28.347477	0.000166	-6.391850E-5
	359.716000	13498.966975	-8.263151	28.346882	0.000170	-6.511310E-5
	360.758000	13514.155441	-8.261010	28.345960	0.000167	-6.332119E-5
	361.803000	13523.304267	-8.259330	28.348017	0.000166	-6.511310E-5
	362.847000	13537.043606	-8.256750	28.351321	0.000165	-6.571040E-5
	363.891000	13573.205779	-8.257721	28.344727	0.000167	-6.451580E-5
	364.937000	13624.814043	-8.259897	28.348590	0.000164	-6.451580E-5
	365.994000	13783.867071	-8.249455	28.350575	0.000166	-6.571040E-5
	367.037000	14646.439488	-8.144298	28.347869	0.000176	-4.121991E-5
	368.087000	13693.662100	-8.077173	28.369507	0.000162	-4.360934E-5
	369.125000	12356.880736	-8.098651	28.382566	0.000166	-5.137481E-5
	370.180000	12095.223129	-8.108701	28.399474	0.000168	-5.256948E-5
	371.223000	12044.867574	-8.110985	28.420804	0.000166	-5.137481E-5
	372.268000	12024.686065	-8.111487	28.433039	0.000163	-5.495879E-5
	373.313000	12043.420057	-8.108263	28.430812	0.000166	-5.316681E-5
	374.357000	12040.243249	-8.113015	28.435775	0.000163	-5.376414E-5
	375.400000	12044.791898	-8.111402	28.427685	0.000160	-5.376414E-5
	376.446000	12059.339523	-8.108093	28.427602	0.000160	-5.256948E-5
	377.489000	12061.030171	-8.108672	28.429105	0.000160	-5.495879E-5
	378.534000	12083.000547	-8.105924	28.429484	0.000160	-5.555612E-5
	379.576000	12107.054446	-8.107323	28.434247	0.000160	-5.615344E-5
	380.618000	12671.702020	-8.023977	28.431025	0.000164	-4.062255E-5
	381.657000	14504.822647	-7.939230	28.444468	0.000152	-3.703836E-5
	382.701000	13068.250868	-7.967704	28.456151	0.000151	-3.823309E-5
	383.746000	12832.782165	-7.974850	28.465223	0.000152	-3.823309E-5
	384.791000	12778.082440	-7.966769	28.476066	0.000150	-4.360934E-5
	385.834000	12761.182396	-7.973549	28.482828	0.000152	-4.301199E-5
	386.877000	12755.197501	-7.977985	28.480049	0.000151	-4.420669E-5
	387.924000	12761.121211	-7.976645	28.487849	0.000149	-4.241463E-5
	388.969000	12751.655190	-7.977806	28.478086	0.000151	-4.360934E-5
	390.015000	12753.179993	-7.972590	28.483168	0.000149	-4.480405E-5
	391.057000	12771.876955	-7.973207	28.485292	0.000146	-4.540140E-5
	392.108000	12769.898091	-7.975362	28.479854	0.000146	-4.480405E-5
	393.153000	12782.793714	-7.971273	28.480534	0.000147	-4.420669E-5
	394.202000	12790.200366	-7.974626	28.489530	0.000146	-4.480405E-5
	395.245000	12792.670322	-7.975654	28.483860	0.000145	-4.540140E-5
	396.302000	12806.454742	-7.976656	28.479598	0.000145	-4.480405E-5
	397.344000	12878.238069	-7.970107	28.481701	0.000146	-4.121991E-5
	398.392000	16890.160551	-7.759069	28.491317	0.000145	-2.986980E-5
	399.459000	13627.040870	-7.819780	28.508597	0.000145	-3.166196E-5
	400.502000	13106.987653	-7.829735	28.515593	0.000143	-3.345410E-5
	401.546000	12999.951884	-7.831146	28.530281	0.000143	-3.524624E-5
	402.603000	12977.561257	-7.835174	28.545444	0.000142	-3.524624E-5
	403.666000	12992.152359	-7.833257	28.549282	0.000141	-3.644098E-5
	404.712000	12976.163654	-7.836099	28.551519	0.000143	-3.703836E-5
	405.768000	12988.242935	-7.836384	28.543180	0.000139	-3.584361E-5
	406.810000	12992.633791	-7.830751	28.546648	0.000140	-3.763573E-5
	407.855000	12989.816044	-7.833386	28.542244	0.000139	-3.703836E-5
	408.898000	12990.503574	-7.829765	28.547680	0.000136	-3.703836E-5
	409.941000	13003.315470	-7.832060	28.551529	0.000139	-3.763573E-5
	411.000000	13003.259115	-7.830639	28.551403	0.000135	-3.763573E-5
	412.044000	13016.863201	-7.833869	28.545030	0.000134	-3.584361E-5
	413.089000	13034.334846	-7.829817	28.544615	0.000138	-3.584361E-5
	414.147000	13091.588259	-7.828980	28.541116	0.000139	-3.703836E-5
	415.189000	17306.324652	-7.611055	28.553189	0.000115	-1.433717E-5
	416.230000	14221.440854	-7.662055	28.563065	0.000111	-1.373974E-5
	417.277000	13672.925079	-7.676506	28.583835	0.000112	-1.732430E-5
	418.322000	13563.668910	-7.683257	28.591734	0.000109	-1.911655E-5
	419.367000	13539.933810	-7.679193	28.606014	0.000106	-1.792172E-5
	420.410000	13535.304653	-7.678799	28.612603	0.000109	-1.851913E-5
	421.452000	13539.714831	-7.680335	28.610318	0.000106	-1.792172E-5
	422.497000	13537.985539	-7.678952	28.610288	0.000108	-2.150620E-5
	423.543000	13540.957860	-7.682687	28.608966	0.000107	-1.911655E-5
	424.588000	13538.307567	-7.683965	28.612355	0.000105	-2.090879E-5
	425.631000	13586.416993	-7.673710	28.605467	0.000105	-2.388300E-6
	426.677000	16220.917421	-7.469605	28.617785	9.417687E-5	-1.075257E-5
	427.724000	14865.882549	-7.498986	28.638160	9.356910E-5	-1.314231E-5
	428.769000	14756.747104	-7.498945	28.650297	9.174580E-5	-1.612945E-5
	429.816000	15260.396443	-7.450451	28.661829	8.931476E-5	-2.449324E-5
	430.862000	17397.191492	-7.269514	28.681270	8.262951E-5	-2.389583E-5
	431.906000	16579.150097	-7.240347	28.702372	8.384500E-5	-2.628544E-5
	432.950000	16288.548252	-7.242933	28.717896	8.019856E-5	-2.807762E-5
	433.996000	16193.934640	-7.240136	28.741826	8.202177E-5	-2.986980E-5
	435.040000	16154.081992	-7.237064	28.752870	8.384500E-5	-2.986980E-5
	436.086000	16159.263431	-7.235434	28.756493	8.202177E-5	-3.166196E-5
	437.129000	16419.203310	-7.209620	28.764418	7.837536E-5	-1.911655E-5
	438.173000	16337.181016	-7.021493	28.781115	7.898309E-5	-1.971397E-5
	439.216000	15236.212083	-7.040680	28.799593	8.202177E-5	-2.329843E-5
	440.256000	15156.729010	-7.038929	28.823863	8.384500E-5	-2.150620E-5
	441.300000	17532.809064	-6.941928	28.837205	8.019856E-5	-1.851913E-5
	442.347000	17915.467778	-6.787313	28.863983	7.959082E-5	-1.851913E-5
	443.390000	17202.534797	-6.764025	28.887020	8.141403E-5	-1.851913E-5
	444.434000	17002.356935	-6.760404	28.910850	7.959082E-5	-1.971397E-5
	445.477000	17032.064081	-6.754924	28.927335	8.202177E-5	-2.090879E-5
	446.521000	17190.941765	-6.741356	28.950933	8.019856E-5	-2.270102E-5
	447.565000	17299.840601	-6.727195	28.953129	8.202177E-5	-2.090879E-5
	448.608000	17392.515634	-6.715272	28.960485	8.262951E-5	-2.270102E-5
	449.651000	17500.936265	-6.693418	28.960100	8.202177E-5	-2.270102E-5
	450.693000	17741.280808	-6.651931	28.963125	8.141403E-5	-1.612945E-5
	451.738000	17256.334536	-6.436562	28.989393	8.019856E-5	-1.254488E-5
	452.781000	15212.681461	-6.475904	29.017814	8.262951E-5	-1.433717E-5
	453.826000	15042.705163	-6.478337	29.038147	8.445274E-5	-1.792172E-5
	454.869000	18090.479154	-6.366039	29.065101	8.262951E-5	-1.672687E-5
	455.914000	18368.588065	-6.273088	29.096104	8.323725E-5	-1.314231E-5
	456.957000	18413.190668	-6.188919	29.114618	8.080629E-5	-1.015514E-5
	458.002000	18402.054911	-6.123439	29.141876	8.262951E-5	-1.254488E-5
	459.045000	18268.416170	-6.092358	29.166243	8.506049E-5	-1.135001E-5
	460.088000	18279.632434	-6.060610	29.187006	8.323725E-5	-1.254488E-5
	461.128000	18297.902738	-6.029681	29.208504	8.384500E-5	-1.254488E-5
	462.169000	18337.219237	-6.006296	29.223223	8.445274E-5	-1.493460E-5
	463.211000	18357.688999	-5.973178	29.242123	8.445274E-5	-1.493460E-5
	464.257000	18388.433092	-5.945741	29.246304	8.506049E-5	-1.493460E-5
	465.300000	18422.936870	-5.925772	29.252300	8.566824E-5	-1.493460E-5
	466.340000	18455.758050	-5.898693	29.260844	8.262951E-5	-1.493460E-5
	467.383000	18494.398291	-5.866749	29.270634	8.384500E-5	-1.493460E-5
	468.429000	18548.700405	-5.833408	29.285916	8.323725E-5	-1.493460E-5
	469.472000	18606.784748	-5.802448	29.286761	8.506049E-5	-1.493460E-5
	470.515000	18654.151973	-5.769457	29.301586	8.384500E-5	-1.433717E-5
	471.557000	18698.628989	-5.734789	29.313523	8.566824E-5	-1.493460E-5
	472.607000	18730.725607	-5.697817	29.317758	8.566824E-5	-1.433717E-5
	473.651000	18777.289371	-5.659500	29.342218	8.445274E-5	-1.433717E-5
	474.709000	18832.037501	-5.622580	29.353885	8.262951E-5	-1.373974E-5
	475.753000	18871.816119	-5.589242	29.369178	8.566824E-5	-1.314231E-5
	476.812000	18907.261839	-5.539540	29.385404	8.688374E-5	-1.194745E-5
	477.855000	18964.505694	-5.504588	29.398504	8.688374E-5	-1.254488E-5
	478.898000	19000.336240	-5.458817	29.419856	8.749149E-5	-1.254488E-5
	479.940000	19045.734265	-5.416833	29.436225	8.506049E-5	-1.254488E-5
	480.984000	19109.186841	-5.374944	29.450563	8.566824E-5	-1.075257E-5
	482.027000	19150.541794	-5.326158	29.465657	8.749149E-5	-1.075257E-5
	483.070000	19186.990638	-5.285489	29.492600	9.903909E-5	1.548135E-9
	484.111000	19234.779731	-5.238243	29.507258	0.000115	4.781316E-6
	485.152000	19297.390206	-5.185355	29.521040	0.000122	7.768721E-6
	486.193000	19348.625011	-5.142478	29.541996	0.000126	7.171237E-6
	487.239000	19398.434838	-5.092591	29.560242	0.000131	1.015867E-5
	488.287000	19447.924247	-5.039390	29.582891	0.000141	5.976274E-6
	489.332000	19499.661419	-4.992300	29.598781	0.000148	6.573755E-6
	490.378000	19526.694140	-4.940242	29.612124	0.000151	8.366207E-6
	491.420000	19562.840282	-4.895718	29.633142	0.000156	6.573755E-6
	492.463000	19598.263468	-4.848497	29.652166	0.000156	4.183840E-6
	493.514000	19625.288140	-4.802256	29.666285	0.000162	2.988892E-6
	494.559000	19675.241275	-4.758200	29.689855	0.000165	2.988892E-6
	495.605000	19708.159078	-4.723013	29.699485	0.000167	4.183840E-6
	496.647000	19753.109495	-4.669559	29.719000	0.000176	5.976274E-6
	497.690000	19813.919841	-4.620968	29.740729	0.000179	8.366207E-6
	498.736000	19871.878620	-4.571013	29.757619	0.000183	9.561182E-6
	499.779000	19914.326874	-4.521918	29.781694	0.000188	7.768721E-6
	500.821000	19941.523834	-4.473440	29.803475	0.000190	8.963694E-6
	501.864000	19988.535240	-4.428891	29.815694	0.000192	9.561182E-6
	502.906000	20008.143588	-4.381692	29.840014	0.000194	1.075616E-5
	503.950000	20042.095108	-4.335920	29.851699	0.000198	1.135366E-5
	504.993000	20152.633185	-4.280861	29.874106	0.000198	1.254865E-5
	506.037000	20188.658574	-4.232126	29.894069	0.000202	1.254865E-5
	507.079000	20220.347842	-4.179545	29.912582	0.000205	1.314615E-5
	508.120000	20244.107146	-4.131948	29.927740	0.000207	1.314615E-5
	509.163000	20275.878532	-4.084310	29.946742	0.000209	1.254865E-5
	510.205000	20289.088165	-4.046675	29.971672	0.000209	1.374364E-5
	511.249000	20311.617317	-3.996931	29.980210	0.000212	1.613366E-5
	512.295000	20337.510064	-3.963385	30.004813	0.000215	1.553615E-5
	513.336000	20353.410250	-3.923459	30.022180	0.000219	1.613366E-5
	514.379000	20391.738148	-3.887057	30.032498	0.000216	1.792618E-5
	515.423000	20404.308554	-3.846409	30.052688	0.000220	1.732867E-5
	516.469000	20446.280213	-3.812550	30.066782	0.000219	1.852369E-5
	517.512000	20476.225698	-3.774924	30.078027	0.000222	1.613366E-5
	518.566000	20503.081313	-3.740687	30.093014	0.000224	1.852369E-5
	519.608000	20529.344395	-3.703429	30.101980	0.000226	1.852369E-5
	520.650000	20550.115272	-3.668128	30.117228	0.000225	2.031624E-5
	521.697000	20618.234086	-3.589993	30.126935	0.000238	3.166933E-5
	522.746000	16103.967909	-3.458398	30.163779	0.000242	3.286442E-5
	523.789000	16820.985560	-3.432520	30.192573	0.000241	3.166933E-5
	524.846000	17600.626703	-3.406921	30.218529	0.000244	3.107178E-5
	525.887000	18975.829841	-3.370538	30.246660	0.000246	3.047424E-5
	526.930000	20627.729122	-3.295613	30.263362	0.000245	2.927916E-5
	527.971000	21243.764423	-3.165800	30.279282	0.000246	3.107178E-5
	529.026000	21182.770486	-3.085739	30.300693	0.000248	2.987670E-5
	530.069000	20536.192344	-3.079915	30.318706	0.000249	3.107178E-5
	531.112000	20485.184547	-3.073823	30.347852	0.000250	3.107178E-5
	532.156000	20523.715327	-3.066080	30.365436	0.000252	2.987670E-5
	533.199000	20589.760273	-3.053778	30.367057	0.000252	2.987670E-5
	534.242000	20704.009760	-3.036038	30.384436	0.000251	2.927916E-5
	535.285000	20785.470246	-3.022476	30.379506	0.000252	3.107178E-5
	536.328000	20856.424533	-3.004616	30.387220	0.000250	2.927916E-5
	537.378000	20945.420505	-2.981096	30.395752	0.000252	2.868162E-5
	538.422000	21021.681838	-2.953977	30.393569	0.000252	2.808408E-5
	539.464000	21123.668473	-2.925702	30.405561	0.000249	2.927916E-5
	540.510000	21289.307400	-2.873243	30.410892	0.000253	2.868162E-5
	541.558000	21348.803904	-2.824258	30.417735	0.000254	3.166933E-5
	542.603000	21378.842788	-2.765344	30.427129	0.000255	2.927916E-5
	543.660000	21399.240117	-2.716197	30.447053	0.000253	3.166933E-5
	544.706000	21430.319156	-2.664116	30.461493	0.000255	2.927916E-5
	545.758000	21456.601570	-2.618754	30.476693	0.000257	3.346197E-5
	546.803000	21476.618906	-2.570633	30.493361	0.000256	3.226687E-5
	547.847000	21485.268611	-2.530753	30.510429	0.000259	3.346197E-5
	548.892000	21510.138927	-2.486553	30.535653	0.000257	3.286442E-5
	549.938000	21543.101837	-2.440166	30.544073	0.000258	3.405952E-5
	550.983000	21570.653049	-2.399640	30.562630	0.000266	4.541328E-5
	552.029000	21599.493986	-2.364900	30.585141	0.000279	5.019397E-5
	553.073000	21632.207325	-2.320781	30.592754	0.000281	5.497476E-5
	554.117000	21691.022746	-2.278040	30.613255	0.000286	5.616997E-5
	555.161000	21765.432433	-2.229825	30.625365	0.000288	5.557237E-5
	556.205000	21806.811583	-2.176557	30.642229	0.000289	5.856042E-5
	557.249000	21826.197743	-2.126258	30.666208	0.000292	5.796281E-5
	558.295000	21845.247386	-2.076178	30.679373	0.000294	5.975565E-5
	559.338000	21877.798103	-2.027339	30.701179	0.000293	6.035327E-5
	560.381000	21899.346691	-1.977726	30.712835	0.000294	5.915803E-5
	561.427000	21919.254541	-1.938328	30.735499	0.000295	6.035327E-5
	562.472000	21945.045867	-1.891842	30.748855	0.000299	6.274375E-5
	563.517000	21975.461532	-1.849136	30.767633	0.000297	6.393901E-5
	564.560000	21993.525765	-1.811523	30.786575	0.000295	5.915803E-5
	565.602000	22014.465718	-1.771956	30.803675	0.000298	6.095089E-5
	566.661000	22043.656063	-1.731666	30.813295	0.000302	6.334138E-5
	567.705000	22063.422221	-1.689088	30.827631	0.000303	6.632953E-5
	568.751000	22080.995359	-1.647624	30.834942	0.000303	6.752480E-5
	569.794000	22128.892387	-1.610610	30.851255	0.000305	6.692716E-5
	570.838000	22289.412729	-1.554466	30.866590	0.000305	6.513427E-5
	571.880000	22337.388658	-1.492503	30.880846	0.000306	6.752480E-5
	572.942000	22365.952662	-1.426192	30.898619	0.000308	6.752480E-5
	573.986000	22378.294434	-1.364398	30.922470	0.000308	6.752480E-5
	575.027000	22398.099239	-1.311034	30.941056	0.000308	6.632953E-5
	576.075000	22422.642706	-1.254538	30.963948	0.000311	6.872008E-5
	577.135000	22452.398217	-1.202211	30.980814	0.000310	7.111065E-5
	578.182000	22456.080623	-1.154239	31.003640	0.000314	7.290359E-5
	579.226000	22477.688791	-1.105487	31.022851	0.000312	7.290359E-5
	580.267000	22495.505065	-1.063500	31.042261	0.000317	7.409890E-5
	581.308000	22508.664795	-1.019390	31.059947	0.000319	7.409890E-5
	582.354000	22527.819102	-0.976609	31.076918	0.000316	7.529421E-5
	583.396000	22553.826192	-0.938710	31.083751	0.000318	7.350125E-5
	584.438000	22568.729710	-0.901965	31.100951	0.000317	7.469655E-5
	585.499000	22595.192474	-0.862496	31.112098	0.000317	7.290359E-5
	586.542000	22610.897846	-0.824891	31.117540	0.000316	7.350125E-5
	587.601000	22628.667427	-0.788791	31.133563	0.000317	7.290359E-5
	588.641000	22645.247109	-0.750518	31.145597	0.000317	7.409890E-5
	589.684000	22660.580538	-0.719623	31.161857	0.000317	7.469655E-5
	590.727000	22676.788277	-0.689131	31.169540	0.000317	7.409890E-5
	591.770000	22685.956454	-0.650392	31.181441	0.000315	7.409890E-5
	592.815000	22701.389711	-0.613158	31.197686	0.000319	7.350125E-5
	593.859000	22731.881064	-0.586857	31.206854	0.000316	7.350125E-5
	594.897000	22757.511383	-0.552676	31.226522	0.000316	7.290359E-5
	595.943000	22778.082620	-0.520581	31.230290	0.000316	7.350125E-5
	596.988000	22802.482787	-0.483811	31.247100	0.000317	7.350125E-5
	598.030000	22821.488962	-0.449703	31.264002	0.000317	7.409890E-5
	599.073000	22848.586126	-0.423618	31.268971	0.000318	7.469655E-5
	600.114000	22871.306911	-0.386836	31.285327	0.000321	7.230594E-5
	601.160000	22911.133898	-0.346688	31.299950	0.000319	7.469655E-5
	602.208000	22944.385045	-0.310946	31.315076	0.000323	7.529421E-5
	603.251000	22975.024534	-0.271397	31.328587	0.000319	7.350125E-5
	604.308000	23075.109671	-0.206890	31.342091	0.000320	7.768485E-5
	605.350000	18711.186512	-0.048881	31.376791	0.000326	8.127085E-5
	606.393000	19721.597349	-0.007521	31.407054	0.000330	8.545459E-5
	607.434000	20391.028075	0.010663	31.441086	0.000326	8.246620E-5
	608.485000	22169.075205	0.062468	31.470079	0.000327	8.067318E-5
	609.527000	22684.257749	0.091718	31.492094	0.000326	7.888018E-5
	610.570000	22868.208988	0.114552	31.497487	0.000323	7.888018E-5
	611.611000	23417.367412	0.191942	31.505275	0.000324	7.648952E-5
	612.671000	23448.179192	0.269034	31.518424	0.000325	7.768485E-5
	613.711000	23465.092182	0.350837	31.525330	0.000327	8.007551E-5
	614.755000	23437.689082	0.414163	31.551300	0.000330	8.246620E-5
	615.797000	23449.647648	0.465926	31.573646	0.000334	8.186852E-5
	616.853000	23439.426431	0.513575	31.599548	0.000332	8.246620E-5
	617.896000	23437.776030	0.555382	31.620023	0.000330	8.306387E-5
	618.939000	23433.294990	0.600593	31.635477	0.000331	8.007551E-5
	619.984000	23444.148993	0.632284	31.656660	0.000329	8.007551E-5
	621.028000	23448.473850	0.662788	31.663428	0.000330	7.947784E-5
	622.074000	23454.230126	0.702774	31.682323	0.000330	7.888018E-5
	623.118000	23468.107988	0.732757	31.690615	0.000328	7.888018E-5
	624.160000	23501.750409	0.763811	31.699452	0.000330	7.828251E-5
	625.202000	23514.600997	0.796517	31.707010	0.000333	7.888018E-5
	626.244000	23532.330330	0.825319	31.722453	0.000334	8.186852E-5
	627.289000	23551.616678	0.863116	31.741564	0.000340	8.366155E-5
	628.346000	23581.127462	0.890267	31.747296	0.000346	8.664996E-5
	629.390000	23606.073477	0.920894	31.758524	0.000347	8.724765E-5
	630.445000	23614.655564	0.958236	31.769798	0.000348	8.844302E-5
	631.488000	23635.149522	0.983848	31.777509	0.000348	8.724765E-5
	632.531000	23670.229809	1.020489	31.789286	0.000349	8.664996E-5
	633.588000	23714.418699	1.056816	31.797467	0.000346	8.425923E-5
	634.633000	23744.069569	1.089309	31.813021	0.000345	8.186852E-5
	635.687000	23780.375179	1.129948	31.823451	0.000344	7.947784E-5
	636.731000	23813.281767	1.173321	31.845250	0.000341	8.007551E-5
	637.789000	23841.641299	1.213127	31.854197	0.000345	8.067318E-5
	638.832000	23861.027478	1.257568	31.861760	0.000347	8.306387E-5
	639.886000	23887.297040	1.298547	31.882824	0.000350	8.127085E-5
	640.929000	23899.730600	1.343723	31.896166	0.000351	8.186852E-5
	641.974000	23920.788113	1.386297	31.909709	0.000355	8.127085E-5
	643.017000	23944.235085	1.424497	31.926099	0.000362	8.545459E-5
	644.070000	23967.912309	1.465682	31.937682	0.000373	9.083380E-5
	645.113000	23989.130837	1.512707	31.950998	0.000375	9.442000E-5
	646.156000	24014.809475	1.553342	31.971003	0.000378	9.800626E-5
	647.197000	24032.038058	1.599702	31.983913	0.000380	9.442000E-5
	648.260000	24049.548415	1.640322	32.001705	0.000379	9.681083E-5
	649.300000	24087.047150	1.687717	32.019420	0.000381	9.681083E-5
	650.355000	24101.422551	1.732820	32.030981	0.000378	9.621312E-5
	651.397000	24131.440538	1.775940	32.047050	0.000375	9.442000E-5
	652.441000	24136.898940	1.813224	32.073900	0.000373	9.501771E-5
	653.487000	24170.831200	1.860362	32.086815	0.000372	9.442000E-5
	654.534000	24194.613085	1.908515	32.095060	0.000373	9.322459E-5
	655.577000	24228.445515	1.949631	32.113157	0.000374	9.740855E-5
	656.629000	24245.348848	1.994223	32.127186	0.000373	9.561541E-5
	657.671000	24261.028470	2.041335	32.144822	0.000372	9.621312E-5
	658.716000	24285.034168	2.085836	32.161618	0.000374	9.621312E-5
	659.759000	24306.867776	2.131748	32.173900	0.000371	9.382230E-5
	660.802000	24330.124755	2.174888	32.195473	0.000370	9.083380E-5
	661.847000	24361.812470	2.221996	32.205976	0.000367	8.724765E-5
	662.891000	24373.732397	2.264406	32.224684	0.000375	8.844302E-5
	663.933000	24397.327508	2.308840	32.244447	0.000374	8.844302E-5
	664.977000	24416.459289	2.354760	32.259216	0.000374	8.904071E-5
	666.024000	24440.300752	2.395378	32.270329	0.000376	9.083380E-5
	667.065000	24459.039656	2.443027	32.296009	0.000373	8.963841E-5
	668.106000	24478.867022	2.486375	32.307443	0.000370	8.605228E-5
	669.149000	24504.431346	2.531586	32.322720	0.000363	8.186852E-5
	670.195000	24524.352099	2.578801	32.340493	0.000362	7.648952E-5
	671.238000	24541.847969	2.619796	32.359098	0.000352	7.111065E-5
	672.284000	24565.831129	2.664860	32.365343	0.000348	6.991536E-5
	673.342000	24589.439123	2.712199	32.385954	0.000347	6.991536E-5
	674.383000	24605.051121	2.755617	32.398649	0.000348	7.350125E-5
	675.428000	24629.977828	2.796865	32.420122	0.000340	7.529421E-5
	676.472000	24638.567970	2.848325	32.444145	0.000362	0.000273
	677.517000	24661.776648	2.889428	32.457878	0.000381	0.000279
	678.574000	24680.856905	2.930552	32.476081	0.000390	0.000287
	679.617000	24702.089932	2.974938	32.493666	0.000392	0.000220
	680.663000	24726.965115	3.028061	32.509603	0.000295	0.000209
	681.707000	24749.185163	3.065844	32.525456	0.000295	0.000209
	682.752000	24762.452786	3.112975	32.545513	0.000308	0.000218
	683.797000	24787.192716	3.155759	32.562300	0.000311	0.000221
	684.844000	24807.495078	3.198276	32.575392	0.000309	0.000215
	685.902000	24820.091270	3.244394	32.601844	0.000307	0.000216
	686.946000	24850.618077	3.290714	32.614150	0.000301	0.000209
	687.987000	24859.081017	3.332011	32.632450	0.000306	0.000208
	689.031000	24876.625195	3.382259	32.644402	0.000298	0.000204
	690.074000	24901.439194	3.422817	32.660352	0.000297	0.000204
	691.117000	24910.539753	3.465395	32.678379	0.000300	0.000209
	692.162000	24935.422989	3.510576	32.699405	0.000305	0.000209
	693.208000	24956.509494	3.554103	32.714655	0.000301	0.000206
	694.251000	24980.238254	3.595849	32.736822	0.000303	0.000213
	695.298000	25004.979798	3.643048	32.750788	0.000308	0.000214
	696.339000	25030.365401	3.686391	32.766006	0.000309	0.000215
	697.385000	25057.525389	3.731364	32.777554	0.000301	0.000207
	698.441000	25068.471180	3.782824	32.793821	0.000300	0.000204
	699.481000	25090.092256	3.825301	32.814188	0.000292	0.000200
	700.525000	25094.887279	3.868882	32.829156	0.000295	0.000201
	701.569000	25116.484203	3.914791	32.847114	0.000302	0.000208
	702.614000	25125.794083	3.957305	32.861291	0.000306	0.000210
	703.658000	25169.290641	4.007392	32.874496	0.000311	0.000215
	704.703000	25190.984176	4.049524	32.894245	0.000306	0.000209
	705.747000	25213.941677	4.098317	32.911728	0.000308	0.000211
	706.809000	25226.144994	4.147084	32.926073	0.000309	0.000212
	707.850000	25225.412376	4.185627	32.944253	0.000301	0.000204
	708.897000	25243.919427	4.234812	32.968657	0.000291	0.000198
	709.942000	25269.427404	4.277183	32.978524	0.000285	0.000189
	710.991000	25276.294690	4.320344	32.999981	0.000286	0.000191
	712.037000	25294.059462	4.362185	33.011389	0.000285	0.000192
	713.081000	25302.781638	4.405404	33.029216	0.000286	0.000190
	714.131000	25311.532797	4.440907	33.042901	0.000297	0.000204
	715.173000	25328.395886	4.479455	33.055170	0.000306	0.000210
	716.215000	25336.114939	4.525415	33.066520	0.000307	0.000210
	717.261000	25362.804768	4.564765	33.084242	0.000308	0.000211
	718.306000	25370.783057	4.604087	33.097276	0.000313	0.000215
	719.350000	25392.020920	4.638298	33.108133	0.000308	0.000212
	720.396000	25426.842001	4.679189	33.124663	0.000305	0.000207
	721.444000	26439.890032	5.006134	33.150503	0.000302	0.000203
	722.487000	21014.853212	4.899342	33.191320	0.000302	0.000206
	723.531000	22128.726543	4.920765	33.223424	0.000309	0.000212
	724.573000	22599.937578	4.946435	33.257139	0.000308	0.000210
	725.634000	23963.563300	4.982065	33.284390	0.000304	0.000206
	726.678000	24451.655517	5.007057	33.306113	0.000300	0.000207
	727.722000	25984.389968	5.184320	33.320522	0.000305	0.000212
	728.767000	24695.208162	5.213848	33.337057	0.000305	0.000206
	729.811000	23844.750495	5.201789	33.364617	0.000306	0.000208
	730.855000	23759.990709	5.199608	33.383286	0.000307	0.000210
	731.903000	23739.045908	5.202721	33.403962	0.000303	0.000206
	732.945000	23770.118538	5.199529	33.415343	0.000298	0.000202
	734.006000	25793.682295	5.405483	33.424023	0.000295	0.000197
	735.049000	22800.540950	5.346646	33.437148	0.000299	0.000207
	736.094000	22475.949833	5.342370	33.453098	0.000303	0.000206
	737.138000	25514.273094	5.457739	33.469380	0.000303	0.000204
	738.183000	25890.703426	5.539711	33.491370	0.000305	0.000207
	739.226000	25852.969577	5.609846	33.509139	0.000309	0.000211
	740.274000	25838.281795	5.666804	33.521468	0.000309	0.000212
	741.319000	25765.337204	5.707343	33.547337	0.000315	0.000217
	742.364000	25723.895183	5.746153	33.570984	0.000310	0.000206
	743.407000	25721.312504	5.776714	33.587729	0.000295	0.000200
	744.455000	25747.591749	5.807110	33.597643	0.000297	0.000198
	745.499000	25767.884460	5.839250	33.613986	0.000288	0.000194
	746.544000	25772.552283	5.866856	33.627428	0.000293	0.000197
	747.588000	25807.785569	5.897810	33.638325	0.000301	0.000202
	748.633000	25825.621192	5.929566	33.652891	0.000299	0.000200
	749.695000	25826.815923	5.960519	33.658444	0.000295	0.000196
	750.739000	25848.164892	5.990518	33.672071	0.000287	0.000194
	751.786000	25866.651016	6.023067	33.681621	0.000299	0.000201
	752.829000	25897.313089	6.052096	33.687158	0.000302	0.000206
	753.876000	25913.870256	6.082748	33.696355	0.000305	0.000210
	754.937000	25938.595708	6.116606	33.709014	0.000308	0.000211
	755.981000	25976.872180	6.156527	33.713905	0.000305	0.000207
	757.026000	26002.100000	6.188885	33.719794	0.000307	0.000207
	758.067000	26032.412673	6.231179	33.738922	0.000302	0.000203
	759.110000	26039.597161	6.271424	33.751856	0.000305	0.000206
	760.152000	26049.444835	6.313168	33.767238	0.000306	0.000205
	761.196000	26075.767557	6.355533	33.780372	0.000310	0.000210
	762.241000	26087.025723	6.395095	33.793353	0.000316	0.000218
	763.285000	26102.413921	6.442162	33.811364	0.000320	0.000218
	764.331000	26125.968799	6.486503	33.830504	0.000309	0.000208
	765.378000	26148.755635	6.524588	33.844524	0.000313	0.000213
	766.420000	26152.175593	6.576386	33.861184	0.000318	0.000221
	767.478000	26163.382234	6.616003	33.884106	0.000315	0.000216
	768.522000	26190.051141	6.661775	33.898375	0.000313	0.000213
	769.576000	26200.615332	6.705002	33.918192	0.000315	0.000216
	770.621000	26201.386594	6.747588	33.938273	0.000314	0.000213
	771.666000	26226.426030	6.794537	33.958788	0.000308	0.000206
	772.707000	26235.384902	6.834066	33.964669	0.000305	0.000204
	773.751000	26270.611756	6.883189	33.989101	0.000305	0.000206
	774.801000	26271.326663	6.927632	34.001672	0.000307	0.000209
	775.860000	26289.672708	6.971841	34.020620	0.000309	0.000207
	776.904000	26310.421096	7.019887	34.038670	0.000306	0.000206
	777.950000	26316.890678	7.064637	34.052493	0.000311	0.000212
	778.994000	26326.931571	7.109853	34.065255	0.000312	0.000209
	780.037000	26352.977353	7.155445	34.082109	0.000306	0.000207
	781.080000	26357.307045	7.200118	34.101002	0.000298	0.000199
	782.135000	26378.221278	7.242839	34.114790	0.000302	0.000204
	783.177000	26394.759127	7.292016	34.135299	0.000303	0.000203
	784.221000	26408.197436	7.336713	34.152463	0.000303	0.000207
	785.265000	26411.660869	7.379877	34.174851	0.000306	0.000207
	786.311000	26440.284501	7.425945	34.184644	0.000309	0.000208
	787.351000	26448.341690	7.469554	34.200280	0.000308	0.000206
	788.400000	26452.975703	7.511807	34.219777	0.000306	0.000207
	789.445000	26481.367473	7.560762	34.237061	0.000307	0.000208
	790.491000	26494.544938	7.596719	34.257584	0.000302	0.000201
	791.535000	26512.185741	7.647575	34.278020	0.000305	0.000204
	792.579000	26523.355351	7.691567	34.300132	0.000309	0.000212
	793.621000	26545.211525	7.730655	34.311187	0.000313	0.000213
	794.684000	26540.005911	7.780270	34.333781	0.000309	0.000210
	795.726000	26556.154104	7.826698	34.355798	0.000308	0.000207
	796.786000	26588.389304	7.869029	34.367775	0.000311	0.000212
	797.830000	26577.638333	7.915577	34.386436	0.000311	0.000212
	798.875000	26604.125299	7.956804	34.409810	0.000306	0.000206
	799.920000	26609.477437	8.002072	34.425507	0.000305	0.000206
	800.963000	26626.472570	8.042986	34.444861	0.000306	0.000206
	802.005000	26643.878291	8.086825	34.463958	0.000312	0.000212
	803.048000	26649.665170	8.136593	34.478645	0.000320	0.000218
	804.092000	26666.571743	8.178984	34.501342	0.000322	0.000219
	805.135000	26680.175901	8.219116	34.513792	0.000314	0.000210
	806.180000	26697.522046	8.263052	34.526541	0.000311	0.000210
	807.238000	26711.905516	8.310232	34.547299	0.000311	0.000210
	808.283000	26722.880300	8.351874	34.561240	0.000312	0.000207
	809.328000	26727.013554	8.397852	34.575622	0.000311	0.000205
	810.373000	26749.391419	8.444731	34.592424	0.000306	0.000203
	811.418000	26756.848024	8.486244	34.607348	0.000304	0.000203
	812.461000	26773.783582	8.531905	34.620739	0.000305	0.000204
	813.525000	26783.837359	8.578110	34.637605	0.000311	0.000209
	814.568000	26802.695437	8.618568	34.650855	0.000309	0.000207
	815.612000	26826.337270	8.662722	34.666915	0.000307	0.000207
	816.657000	26826.092528	8.708335	34.687982	0.000304	0.000206
	817.701000	26843.609351	8.748682	34.709870	0.000302	0.000201
	818.758000	26858.894505	8.792621	34.719710	0.000306	0.000206
	819.801000	26868.149648	8.842113	34.739892	0.000295	0.000195
	820.844000	26879.625188	8.882749	34.760494	0.000291	0.000192
	821.893000	26878.523845	8.923530	34.771404	0.000295	0.000194
	822.938000	26904.179978	8.965041	34.786706	0.000300	0.000200
	823.981000	26922.142813	9.011003	34.802179	0.000298	0.000198
	825.025000	26931.798884	9.058325	34.818271	0.000298	0.000200
	826.076000	26957.984756	9.101592	34.834637	0.000303	0.000204
	827.122000	26954.378020	9.152196	34.846843	0.000300	0.000202
	828.165000	26995.908625	9.199269	34.869162	0.000309	0.000207
	829.210000	27003.418366	9.248771	34.874936	0.000312	0.000210
	830.257000	27018.635896	9.299937	34.901243	0.000316	0.000212
	831.301000	27020.434432	9.347574	34.919936	0.000312	0.000212
	832.346000	27035.139935	9.396099	34.943817	0.000321	0.000217
	833.390000	27052.223629	9.444419	34.954941	0.000316	0.000212
	834.431000	27053.593868	9.486510	34.983815	0.000312	0.000212
	835.472000	27062.919859	9.534362	34.999034	0.000316	0.000213
	836.535000	27070.978662	9.583036	35.028802	0.000311	0.000210
	837.577000	27079.510848	9.630530	35.041157	0.000308	0.000207
	838.625000	27081.248199	9.671316	35.062783	0.000297	0.000197
	839.665000	27094.721937	9.713211	35.079719	0.000295	0.000195
	840.709000	27098.066220	9.758081	35.096608	0.000295	0.000196
	841.751000	27116.066090	9.802076	35.117339	0.000301	0.000203
	842.795000	27124.556413	9.841902	35.136905	0.000307	0.000203
	843.838000	27139.693436	9.886893	35.154366	0.000306	0.000203
	844.884000	27155.144440	9.928795	35.169348	0.000306	0.000204
	845.929000	27164.702291	9.970575	35.188134	0.000298	0.000200
	846.972000	27167.101415	10.007474	35.204479	0.000292	0.000195
	848.018000	27180.396427	10.049486	35.225248	0.000291	0.000191
	849.061000	27193.126277	10.088313	35.249175	0.000302	0.000204
	850.103000	27204.951221	10.131220	35.268711	0.000312	0.000212
	851.145000	27204.162248	10.172484	35.284373	0.000317	0.000212
	852.190000	27217.400905	10.210260	35.297969	0.000317	0.000213
	853.234000	27235.246201	10.243989	35.314792	0.000318	0.000219
	854.277000	27235.397556	10.285082	35.331720	0.000316	0.000213
	855.322000	27243.206785	10.330410	35.336043	0.000313	0.000209
	856.366000	27271.910938	10.368523	35.354488	0.000305	0.000202
	857.418000	27306.817389	10.410836	35.367370	0.000303	0.000200
	858.463000	27307.786701	10.450307	35.388100	0.000304	0.000207
	859.506000	27308.189238	10.495082	35.398118	0.000310	0.000207
	860.549000	27326.683426	10.539707	35.417508	0.000314	0.000211
	861.604000	27366.130504	10.580914	35.434264	0.000308	0.000205
	862.645000	27379.927886	10.629840	35.450371	0.000300	0.000198
	863.688000	27384.793760	10.681239	35.465407	0.000298	0.000198
	864.732000	27389.778786	10.725524	35.479070	0.000299	0.000198
	865.777000	27403.104392	10.771430	35.504628	0.000299	0.000197
	866.820000	27411.076248	10.819825	35.519522	0.000302	0.000204
	867.866000	27415.354418	10.864691	35.539905	0.000298	0.000200
	868.913000	27464.773161	10.914994	35.555057	0.000292	0.000192
	869.959000	27482.718289	10.974195	35.569977	0.000291	0.000192
	871.002000	27468.804978	11.018143	35.596556	0.000295	0.000197
	872.048000	27477.016746	11.066986	35.608513	0.000298	0.000203
	873.088000	27482.681256	11.121465	35.632322	0.000306	0.000204
	874.135000	27508.749596	11.168987	35.661005	0.000313	0.000210
	875.181000	27508.401802	11.215934	35.678809	0.000315	0.000211
	876.225000	27503.711434	11.266599	35.706795	0.000309	0.000210
	877.266000	27517.481442	11.309065	35.723636	0.000311	0.000209
	878.310000	27512.604296	11.356104	35.744416	0.000313	0.000211
	879.354000	27528.638177	11.396055	35.759413	0.000309	0.000206
	880.395000	27526.248713	11.438032	35.772728	0.000302	0.000202
	881.435000	27545.047223	11.486928	35.788398	0.000297	0.000195
	882.483000	27553.787121	11.524786	35.805525	0.000297	0.000199
	883.524000	27558.398592	11.570449	35.831937	0.000297	0.000198
	884.567000	27567.476622	11.615285	35.850822	0.000301	0.000200
	885.609000	27584.067615	11.653710	35.870922	0.000299	0.000199
	886.651000	27593.261575	11.689060	35.884312	0.000304	0.000207
	887.696000	27597.483390	11.730365	35.904199	0.000311	0.000210
	888.739000	27607.582257	11.765933	35.921812	0.000316	0.000213
	889.780000	27624.166809	11.807020	35.930929	0.000317	0.000215
	890.836000	27621.597008	11.844248	35.946512	0.000311	0.000209
	891.877000	27623.765882	11.888305	35.961128	0.000314	0.000213
	892.934000	27643.184301	11.920507	35.977237	0.000309	0.000207
	893.979000	27652.592412	11.954894	35.983425	0.000299	0.000197
	895.025000	27661.633409	11.999675	35.995632	0.000303	0.000203
	896.067000	27677.055433	12.037018	36.011730	0.000310	0.000211
	897.117000	27678.892615	12.069190	36.026165	0.000316	0.000215
	898.162000	27690.337567	12.111508	36.044890	0.000312	0.000210
	899.207000	27708.678795	12.148235	36.066374	0.000308	0.000205
	900.246000	27715.404395	12.187264	36.074842	0.000305	0.000204
	901.307000	27725.577328	12.229697	36.097935	0.000303	0.000203
	902.351000	27724.097600	12.267457	36.109789	0.000298	0.000193
	903.394000	27740.617748	12.304740	36.134543	0.000296	0.000195
	904.435000	27754.885295	12.340032	36.147021	0.000289	0.000191
	905.478000	27769.346059	12.381961	36.154997	0.000296	0.000194
	906.519000	27787.954573	12.419460	36.180003	0.000292	0.000192
	907.576000	27791.659531	12.462740	36.189340	0.000293	0.000194
	908.617000	27792.139355	12.501618	36.203176	0.000288	0.000188
	909.661000	27811.076341	12.545070	36.226263	0.000294	0.000195
	910.704000	27817.803551	12.586512	36.237161	0.000298	0.000197
	911.753000	27841.891410	12.629791	36.255903	0.000306	0.000204
	912.794000	27851.215794	12.675632	36.266891	0.000306	0.000204
	913.838000	27856.914118	12.712833	36.278005	0.000306	0.000207
	914.880000	27861.491778	12.755559	36.296947	0.000303	0.000201
	915.924000	27860.491873	12.799354	36.313585	0.000300	0.000203
	916.966000	27875.773817	12.838304	36.330730	0.000309	0.000207
	918.009000	27888.492399	12.881054	36.348592	0.000309	0.000209
	919.051000	27903.505447	12.930050	36.365337	0.000308	0.000207
	920.098000	27935.123983	12.977056	36.387756	0.000305	0.000201
	921.139000	28008.736869	13.034383	36.403680	0.000297	0.000195
	922.182000	28196.596430	13.167300	36.427961	0.000295	0.000194
	923.225000	28159.097617	13.299943	36.456287	0.000298	0.000196
	924.270000	28109.925209	13.420885	36.500555	0.000303	0.000201
	925.315000	28083.232123	13.518694	36.545691	0.000301	0.000200
	926.360000	24791.329195	13.314847	36.592764	0.000300	0.000198
	927.405000	23090.845641	13.413967	36.627795	0.000302	0.000198
	928.448000	24059.985395	13.436369	36.653015	0.000306	0.000203
	929.491000	24378.453351	13.446826	36.663389	0.000302	0.000200
	930.535000	24627.755823	13.455138	36.671627	0.000302	0.000200
	931.581000	26698.042133	13.543452	36.667075	0.000300	0.000198
	932.625000	28057.651651	13.616450	36.682276	0.000295	0.000195
	933.666000	28127.979834	13.668883	36.699970	0.000286	0.000186
	934.714000	28116.848859	13.727151	36.709684	0.000293	0.000195
	935.759000	28080.502916	13.775059	36.740899	0.000303	0.000203
	936.800000	28074.340867	13.817673	36.759912	0.000312	0.000209
	937.844000	28068.452545	13.866405	36.786758	0.000311	0.000207
	938.889000	28091.925329	13.906856	36.801710	0.000308	0.000204
	939.933000	28092.041259	13.942572	36.822988	0.000308	0.000203
	940.991000	28095.116648	13.988387	36.837921	0.000305	0.000204
	942.031000	28094.889617	14.027848	36.854971	0.000311	0.000208
	943.078000	28119.801877	14.063777	36.869860	0.000303	0.000198
	944.121000	28114.271007	14.103699	36.881044	0.000288	0.000186
	945.165000	28122.822521	14.138953	36.895244	0.000295	0.000196
	946.207000	28132.198430	14.174355	36.910798	0.000297	0.000196
	947.256000	28146.140731	14.213306	36.926834	0.000297	0.000193
	948.299000	28142.922038	14.252916	36.939791	0.000299	0.000198
	949.345000	28158.592029	14.286791	36.958317	0.000298	0.000196
	950.388000	28178.079689	14.328721	36.969083	0.000295	0.000196
	951.433000	28179.738145	14.368086	36.982291	0.000300	0.000201
	952.477000	28194.467810	14.399776	36.991532	0.000305	0.000204
	953.543000	28203.545844	14.444604	37.007538	0.000309	0.000202
	954.587000	28208.281297	14.478440	37.017264	0.000306	0.000203
	955.630000	28220.312348	14.523324	37.036753	0.000304	0.000200
	956.672000	28232.203315	14.560646	37.048364	0.000299	0.000195
	957.720000	28249.502780	14.601186	37.070380	0.000299	0.000197
	958.764000	28252.045210	14.643989	37.083668	0.000305	0.000202
	959.806000	28267.150039	14.683043	37.096149	0.000311	0.000207
	960.848000	28279.493459	14.721487	37.118250	0.000308	0.000205
	961.892000	28290.167152	14.763108	37.133825	0.000295	0.000192
	962.935000	28303.858268	14.808705	37.153029	0.000295	0.000192
	963.979000	28307.801530	14.852486	37.160199	0.000291	0.000191
	965.024000	28317.325576	14.895916	37.184769	0.000298	0.000195
	966.071000	28326.896316	14.939890	37.207465	0.000291	0.000186
	967.114000	28324.902948	14.985929	37.227183	0.000279	0.000180
	968.159000	28329.950773	15.029533	37.252564	0.000284	0.000184
	969.202000	28348.069807	15.070159	37.272577	0.000284	0.000183
	970.253000	28362.660998	15.117858	37.287473	0.000289	0.000189
	971.298000	28368.414069	15.169951	37.306010	0.000295	0.000193
	972.341000	28387.541058	15.216908	37.335682	0.000291	0.000189
	973.384000	28393.643533	15.262662	37.357262	0.000288	0.000185
	974.429000	28390.152723	15.307383	37.376350	0.000283	0.000179
	975.470000	28399.258130	15.352286	37.400111	0.000292	0.000190
	976.514000	28408.603449	15.399462	37.422145	0.000302	0.000200
	977.558000	28417.303098	15.444504	37.436918	0.000305	0.000203
	978.601000	28434.357822	15.491223	37.457230	0.000310	0.000205
	979.646000	28428.134587	15.533096	37.485046	0.000306	0.000206
	980.689000	28440.080301	15.583023	37.512931	0.000295	0.000194
	981.733000	28440.838681	15.623851	37.529312	0.000298	0.000197
	982.777000	28447.752673	15.674148	37.543347	0.000303	0.000196
	983.821000	28442.511630	15.716170	37.569310	0.000292	0.000190
	984.865000	28453.597522	15.761119	37.588697	0.000278	0.000176
	985.910000	28470.344708	15.802368	37.606660	0.000284	0.000183
	986.955000	28475.336177	15.846391	37.625091	0.000292	0.000189
	988.001000	28488.898485	15.892892	37.642474	0.000295	0.000196
	989.047000	28501.299871	15.933773	37.660069	0.000299	0.000192
	990.092000	28502.578330	15.980378	37.681969	0.000290	0.000188
	991.137000	28516.071401	16.021947	37.698199	0.000289	0.000189
	992.182000	28510.353755	16.071151	37.720749	0.000292	0.000194
	993.225000	28531.060302	16.107792	37.735671	0.000302	0.000198
	994.268000	28540.127066	16.153553	37.751750	0.000305	0.000198
	995.313000	28533.556037	16.193657	37.770339	0.000299	0.000196
	996.357000	28546.669112	16.234884	37.789991	0.000299	0.000197
	997.401000	28559.250836	16.278632	37.801241	0.000304	0.000200
	998.444000	28568.731409	16.319886	37.818958	0.000306	0.000204
	999.488000	28570.631387	16.363931	37.839123	0.000308	0.000206
	1000.534000	28579.846285	16.407303	37.852254	0.000298	0.000198
	1001.578000	28587.866451	16.449280	37.877052	0.000295	0.000195
	1002.624000	28590.471676	16.490110	37.897901	0.000302	0.000197
	1003.681000	28596.121698	16.530509	37.916271	0.000298	0.000197
	1004.724000	28598.818702	16.577611	37.927898	0.000292	0.000190
	1005.768000	28619.037376	16.617504	37.953825	0.000293	0.000188
	1006.811000	28629.438955	16.661162	37.972113	0.000292	0.000191
	1007.856000	28623.705206	16.701298	37.994386	0.000299	0.000200
	1008.901000	28645.786826	16.743549	38.015119	0.000308	0.000203
	1009.945000	28654.338341	16.786584	38.033903	0.000308	0.000203
	1010.989000	28660.764457	16.826298	38.048607	0.000306	0.000201
	1012.035000	28676.292759	16.873059	38.063401	0.000304	0.000201
	1013.077000	28667.728362	16.914015	38.087528	0.000305	0.000204
	1014.121000	28687.121031	16.960982	38.108486	0.000304	0.000200
	1015.164000	28690.288198	17.007281	38.130645	0.000307	0.000204
	1016.208000	28711.455252	17.053620	38.148023	0.000304	0.000202
	1017.252000	28718.406277	17.096847	38.167899	0.000295	0.000192
	1018.298000	28727.260502	17.143957	38.190966	0.000289	0.000188
	1019.343000	28727.946427	17.192836	38.201569	0.000295	0.000197
	1020.387000	28738.035637	17.234892	38.221817	0.000297	0.000194
	1021.431000	28743.048040	17.281597	38.251053	0.000297	0.000196
	1022.474000	28746.364952	17.329048	38.270292	0.000304	0.000201
	1023.520000	28760.126919	17.375184	38.290553	0.000311	0.000208
	1024.564000	28754.195120	17.423988	38.310746	0.000307	0.000206
	1025.604000	28776.717923	17.460556	38.323259	0.000309	0.000206
	1026.649000	28770.198418	17.511195	38.346883	0.000309	0.000207
	1027.692000	28781.714223	17.558845	38.367466	0.000309	0.000206
	1028.737000	28790.985479	17.597881	38.386179	0.000308	0.000204
	1029.783000	28791.706826	17.644980	38.413508	0.000306	0.000204
	1030.825000	28798.427600	17.686790	38.434321	0.000303	0.000203
	1031.868000	28808.152915	17.731991	38.450523	0.000303	0.000200
	1032.911000	28818.145519	17.774289	38.478435	0.000308	0.000206
	1033.952000	28820.105074	17.815482	38.498997	0.000311	0.000209
	1034.997000	28822.209541	17.860688	38.519632	0.000312	0.000207
	1036.040000	28830.899532	17.902181	38.532037	0.000308	0.000204
	1037.084000	28835.356432	17.946961	38.553765	0.000306	0.000204
	1038.128000	28835.444990	17.988150	38.568873	0.000300	0.000197
	1039.173000	28852.858782	18.030763	38.588027	0.000294	0.000194
	1040.217000	28863.022061	18.069094	38.607968	0.000294	0.000192
	1041.257000	28875.687516	18.112171	38.620973	0.000298	0.000198
	1042.298000	28884.031322	18.159571	38.639232	0.000306	0.000205
	1043.350000	28875.370315	18.198048	38.652804	0.000301	0.000195
	1044.392000	28891.652171	18.243112	38.681890	0.000302	0.000198
	1045.454000	28889.483297	18.284255	38.696470	0.000303	0.000204
	1046.499000	28894.297651	18.328271	38.712998	0.000306	0.000202
	1047.545000	28911.199415	18.373147	38.724844	0.000301	0.000198
	1048.590000	28907.016241	18.413051	38.745838	0.000303	0.000198
	1049.636000	28926.004763	18.457046	38.765234	0.000297	0.000195
	1050.680000	28943.637536	18.500121	38.787357	0.000302	0.000198
	1051.735000	28954.797499	18.546385	38.799587	0.000305	0.000204
	1052.780000	28951.543383	18.591058	38.822667	0.000307	0.000203
	1053.833000	28958.679575	18.636119	38.846739	0.000303	0.000203
	1054.875000	28971.944008	18.682535	38.867629	0.000298	0.000198
	1055.921000	28975.022617	18.728545	38.888472	0.000306	0.000205
	1056.962000	28964.730528	18.771243	38.907550	0.000303	0.000200
	1058.007000	28977.217255	18.811001	38.921474	0.000307	0.000203
	1059.051000	28982.804482	18.858899	38.941680	0.000309	0.000204
	1060.116000	28997.025345	18.902331	38.962711	0.000301	0.000198
	1061.160000	28998.498633	18.940078	38.981926	0.000311	0.000206
	1062.199000	28999.685316	18.988554	39.005832	0.000314	0.000207
	1063.243000	29004.320943	19.027216	39.020871	0.000311	0.000209
	1064.287000	29014.315156	19.069324	39.042549	0.000305	0.000202
	1065.331000	29020.665596	19.117548	39.066991	0.000308	0.000204
	1066.377000	29026.331721	19.160101	39.081143	0.000304	0.000198
	1067.421000	29035.324419	19.202334	39.093617	0.000302	0.000198
	1068.462000	29033.075039	19.244995	39.115661	0.000306	0.000200
	1069.503000	29046.173624	19.283614	39.127443	0.000305	0.000200
	1070.547000	29061.513543	19.325437	39.148778	0.000295	0.000192
	1071.589000	29066.104086	19.370946	39.169452	0.000302	0.000196
	1072.643000	29073.359432	19.417965	39.187063	0.000306	0.000204
	1073.687000	29077.371930	19.455377	39.202774	0.000308	0.000203
	1074.730000	29075.851949	19.500630	39.229262	0.000314	0.000209
	1075.772000	29088.485201	19.544540	39.242368	0.000311	0.000205
	1076.815000	29100.562950	19.588477	39.268529	0.000317	0.000210
	1077.861000	29087.459534	19.637659	39.287556	0.000313	0.000209
	1078.907000	29098.748309	19.676233	39.308456	0.000313	0.000211
	1079.952000	29118.425977	19.718139	39.321373	0.000320	0.000217
	1081.008000	29120.036131	19.762685	39.345005	0.000317	0.000215
	1082.049000	29123.724987	19.806175	39.359814	0.000318	0.000212
	1083.106000	29138.866859	19.852104	39.380491	0.000316	0.000213
	1084.151000	29152.776963	19.886056	39.401087	0.000316	0.000210
	1085.198000	29147.661511	19.933715	39.415290	0.000316	0.000211
	1086.241000	29143.890534	19.981820	39.437129	0.000317	0.000211
	1087.287000	29146.420083	20.024818	39.462982	0.000316	0.000209
	1088.331000	29161.181958	20.062906	39.480611	0.000311	0.000208
	1089.375000	29177.644152	20.112829	39.506598	0.000306	0.000201
	1090.421000	29166.155717	20.153673	39.529282	0.000300	0.000192
	1091.466000	29190.824859	20.198429	39.546876	0.000295	0.000193
	1092.511000	29190.415880	20.246280	39.572822	0.000298	0.000197
	1093.556000	29190.976213	20.292437	39.599763	0.000294	0.000192
	1094.600000	29199.345784	20.335120	39.627257	0.000297	0.000194
	1095.643000	29203.458111	20.380475	39.644312	0.000303	0.000202
	1096.686000	29204.652845	20.425080	39.662632	0.000309	0.000206
	1097.731000	29215.653404	20.467970	39.684080	0.000312	0.000207
	1098.774000	29215.389340	20.514076	39.700183	0.000317	0.000210
	1099.822000	29216.701614	20.555987	39.726131	0.000316	0.000210
	1100.867000	29219.292349	20.597047	39.742739	0.000305	0.000201
	1101.910000	29227.367263	20.641763	39.760445	0.000306	0.000203
	1102.953000	29238.791292	20.682469	39.788386	0.000303	0.000197
	1104.014000	29220.831655	20.720439	39.803390	0.000296	0.000192
	1105.059000	29241.952021	20.762945	39.827344	0.000293	0.000191
	1106.118000	29253.110375	20.805461	39.855019	0.000302	0.000198
	1107.162000	29259.604119	20.848713	39.879378	0.000309	0.000206
	1108.207000	29267.959199	20.884244	39.896555	0.000315	0.000212
	1109.249000	29272.544913	20.932936	39.923181	0.000315	0.000210
	1110.294000	29277.795618	20.970112	39.940938	0.000313	0.000209
	1111.339000	29287.500007	21.005506	39.961577	0.000308	0.000208
	1112.385000	29290.037607	21.053898	39.983114	0.000312	0.000208
	1113.429000	29293.109777	21.092012	40.006288	0.000314	0.000207
	1114.472000	29304.361520	21.137693	40.026120	0.000312	0.000209
	1115.516000	29305.569135	21.175794	40.040383	0.000312	0.000209
	1116.559000	29314.305821	21.218689	40.064038	0.000311	0.000207
	1117.602000	29338.863864	21.258992	40.089330	0.000312	0.000209
	1118.647000	29341.066552	21.312290	40.106094	0.000312	0.000210
	1119.693000	29338.609459	21.359226	40.126057	0.000312	0.000206
	1120.737000	29345.766587	21.398724	40.145441	0.000303	0.000195
	1121.784000	29351.625931	21.448846	40.164032	0.000296	0.000190
	1122.836000	29350.213828	21.495858	40.192812	0.000302	0.000195
	1123.881000	29358.739584	21.543164	40.215759	0.000308	0.000203
	1124.925000	29367.580931	21.589045	40.229812	0.000314	0.000210
	1125.967000	29366.144675	21.636546	40.255767	0.000317	0.000211
	1127.025000	29381.383155	21.681688	40.284436	0.000321	0.000215
	1128.067000	29367.597032	21.733095	40.301049	0.000323	0.000218
	1129.120000	29384.817610	21.778923	40.322843	0.000323	0.000215
	1130.164000	29379.525041	21.822826	40.338565	0.000311	0.000207
	1131.206000	29390.664075	21.870038	40.358060	0.000311	0.000209
	1132.249000	29392.657444	21.915845	40.377102	0.000311	0.000206
	1133.301000	29408.549646	21.966483	40.388121	0.000311	0.000206
	1134.346000	29398.412128	22.008944	40.401796	0.000309	0.000208
	1135.389000	29397.663407	22.053401	40.424377	0.000309	0.000205
	1136.433000	29401.774125	22.098937	40.441784	0.000306	0.000204
	1137.474000	29376.077704	22.140628	40.467102	0.000312	0.000207
	1138.515000	29355.538602	22.172607	40.492158	0.000315	0.000210
	1139.559000	29360.333635	22.210262	40.515443	0.000316	0.000213
	1140.602000	29382.964326	22.238000	40.538252	0.000316	0.000210
	1141.646000	29403.284448	22.273952	40.563500	0.000319	0.000213
	1142.690000	29411.275634	22.305821	40.576624	0.000319	0.000213
	1143.732000	29429.343155	22.345782	40.596110	0.000322	0.000216
	1144.775000	29436.740194	22.371883	40.615212	0.000319	0.000213
	1145.820000	29462.246618	22.413966	40.635210	0.000314	0.000210
	1146.861000	29454.026790	22.454370	40.652429	0.000317	0.000210
	1147.905000	29471.909144	22.492849	40.668421	0.000321	0.000213
	1148.949000	29494.198484	22.530708	40.685634	0.000320	0.000215
	1149.993000	29498.252848	22.570448	40.704003	0.000319	0.000215
	1151.036000	29504.968793	22.616601	40.726006	0.000321	0.000215
	1152.079000	29502.089840	22.655200	40.747295	0.000321	0.000214
	1153.123000	29498.922670	22.697174	40.765496	0.000322	0.000217
	1154.181000	29506.269797	22.741328	40.792148	0.000321	0.000215
	1155.226000	29515.524954	22.786009	40.816915	0.000312	0.000207
	1156.269000	29531.613597	22.836798	40.832070	0.000307	0.000202
	1157.314000	29524.804262	22.882819	40.857118	0.000305	0.000204
	1158.358000	29534.085179	22.926599	40.880087	0.000311	0.000207
	1159.402000	29533.824335	22.978587	40.896852	0.000314	0.000210
	1160.445000	29532.238334	23.029376	40.921492	0.000316	0.000214
	1161.489000	29543.377370	23.079502	40.939879	0.000319	0.000218
	1162.533000	29539.200635	23.124308	40.966321	0.000326	0.000216
	1163.576000	29548.732737	23.175025	40.988659	0.000326	0.000221
	1164.620000	29541.697982	23.223950	41.010539	0.000323	0.000221
	1165.664000	29539.023518	23.267271	41.044495	0.000322	0.000218
	1166.709000	29558.287383	23.319313	41.074341	0.000319	0.000214
	1167.755000	29575.763977	23.372551	41.107083	0.000320	0.000215
	1168.798000	29559.639911	23.419346	41.135528	0.000320	0.000217
	1169.842000	29571.749868	23.469288	41.155517	0.000319	0.000215
	1170.885000	29559.108561	23.521819	41.186258	0.000316	0.000210
	1171.927000	29569.624467	23.570438	41.201819	0.000312	0.000207
	1172.973000	29584.056263	23.614978	41.230882	0.000304	0.000200
	1174.018000	29580.837568	23.662551	41.252438	0.000303	0.000202
	1175.064000	29586.849878	23.709183	41.279297	0.000313	0.000207
	1176.108000	29593.973192	23.758496	41.307930	0.000316	0.000209
	1177.150000	29602.782337	23.807118	41.334210	0.000318	0.000209
	1178.190000	29607.372882	23.854863	41.357116	0.000317	0.000210
	1179.235000	29609.012017	23.904494	41.381692	0.000316	0.000209
	1180.281000	29607.577370	23.955214	41.409928	0.000305	0.000201
	1181.325000	29609.293794	24.002765	41.437227	0.000308	0.000201
	1182.368000	29617.587690	24.046086	41.463564	0.000311	0.000206
	1183.415000	29612.520540	24.089177	41.488911	0.000309	0.000206
	1184.458000	29618.286495	24.135185	41.513049	0.000302	0.000199
	1185.503000	29620.682402	24.179511	41.535484	0.000297	0.000194
	1186.547000	29618.666492	24.225648	41.565394	0.000303	0.000198
	1187.588000	29617.468538	24.266238	41.590403	0.000308	0.000201
	1188.630000	29625.301930	24.311755	41.616910	0.000304	0.000199
	1189.672000	29627.662414	24.345187	41.645468	0.000308	0.000203
	1190.717000	29616.186856	24.385712	41.663598	0.000306	0.000203
	1191.761000	29525.520778	24.419924	41.681473	0.000309	0.000204
	1192.805000	29490.158610	24.438225	41.702279	0.000307	0.000204
	1193.848000	29500.495789	24.456715	41.710828	0.000303	0.000203
	1194.891000	29539.873679	24.482995	41.724231	0.000305	0.000200
	1195.933000	29559.578725	24.510213	41.736787	0.000306	0.000203
	1196.978000	29579.166228	24.530805	41.738811	0.000309	0.000207
	1198.022000	29590.727125	24.554255	41.755347	0.000303	0.000201
	1199.066000	29622.493824	24.581616	41.767541	0.000302	0.000197
	1200.110000	29698.042184	24.610583	41.780162	0.000302	0.000195
	1201.152000	29734.892137	24.635305	41.792776	0.000300	0.000198
	1202.197000	29747.420735	24.676571	41.802952	0.000297	0.000196
	1203.241000	29760.968559	24.718545	41.830569	0.000298	0.000196
	1204.286000	29774.104186	24.766109	41.852212	0.000297	0.000191
	1205.331000	29769.900076	24.814587	41.873656	0.000292	0.000191
	1206.373000	29760.702885	24.861067	41.890716	0.000291	0.000188
	1207.417000	29774.877059	24.913953	41.906035	0.000291	0.000187
	1208.462000	29751.913061	24.971882	41.928107	0.000296	0.000193
	1209.505000	29765.196821	25.022193	41.952473	0.000304	0.000198
	1210.547000	29752.310768	25.080563	41.974327	0.000308	0.000204
	1211.592000	29746.903875	25.135134	42.005020	0.000314	0.000207
	1212.637000	29754.774302	25.189221	42.033764	0.000312	0.000210
	1213.681000	29739.305566	25.247435	42.069046	0.000319	0.000216
	1214.729000	29732.686228	25.299408	42.100316	0.000322	0.000213
	1215.768000	29737.413637	25.357068	42.130397	0.000317	0.000213
	1216.811000	29738.751674	25.416153	42.164133	0.000313	0.000211
	1217.854000	29745.364571	25.462977	42.183228	0.000314	0.000208
	1218.898000	29740.189540	25.521083	42.213023	0.000312	0.000206
	1219.942000	29741.638677	25.572451	42.240424	0.000308	0.000204
	1220.991000	29749.446306	25.624783	42.278078	0.000297	0.000192
	1222.032000	29750.457484	25.678569	42.304697	0.000291	0.000191
	1223.075000	29748.742670	25.726918	42.344309	0.000300	0.000198
	1224.120000	29737.408806	25.771153	42.378535	0.000306	0.000201
	1225.164000	29747.670309	25.819308	42.406254	0.000306	0.000203
	1226.210000	29761.193981	25.863255	42.446255	0.000304	0.000203
	1227.268000	29757.955964	25.910171	42.482643	0.000306	0.000201
	1228.311000	29764.747588	25.954533	42.505939	0.000309	0.000203
	1229.357000	29749.435038	26.000507	42.534756	0.000306	0.000203
	1230.401000	29756.080136	26.042398	42.557223	0.000309	0.000204
	1231.445000	29769.473386	26.084725	42.576569	0.000306	0.000200
	1232.489000	29769.302711	26.126437	42.596703	0.000306	0.000201
	1233.534000	29767.547644	26.168449	42.623135	0.000309	0.000202
	1234.576000	29781.960120	26.205483	42.648170	0.000304	0.000199
	1235.622000	29790.827231	26.245338	42.664721	0.000302	0.000195
	1236.666000	29803.043459	26.285770	42.693406	0.000299	0.000191
	1237.711000	29809.942964	26.325154	42.712467	0.000294	0.000186
	1238.754000	29796.578698	26.366440	42.738594	0.000288	0.000183
	1239.795000	29798.547913	26.404810	42.764642	0.000286	0.000185
	1240.840000	29805.848346	26.445106	42.793436	0.000296	0.000194
	1241.888000	29811.150579	26.490978	42.817877	0.000301	0.000198
	1242.930000	29810.319740	26.522929	42.839513	0.000299	0.000198
	1243.973000	29820.999883	26.562319	42.868085	0.000299	0.000199
	1245.029000	29833.615430	26.600515	42.901781	0.000295	0.000192
	1246.074000	29824.996283	26.638030	42.930455	0.000299	0.000195
	1247.133000	29840.405444	26.675923	42.947033	0.000302	0.000199
	1248.177000	29839.408759	26.718617	42.977965	0.000305	0.000204
	1249.220000	29857.582555	26.761640	42.999055	0.000316	0.000207
	1250.269000	29858.545426	26.803047	43.028046	0.000317	0.000209
	1251.312000	29876.200750	26.843365	43.048913	0.000311	0.000204
	1252.358000	29868.748964	26.891841	43.071361	0.000306	0.000201
	1253.399000	29866.786187	26.934223	43.094890	0.000305	0.000203
	1254.444000	29872.201131	26.982048	43.121556	0.000306	0.000201
	1255.492000	29861.031500	27.024008	43.141872	0.000303	0.000194
	1256.534000	29864.462736	27.069216	43.177353	0.000295	0.000192
	1257.579000	29862.147337	27.115907	43.207000	0.000302	0.000197
	1258.626000	29878.992756	27.154307	43.233320	0.000302	0.000197
	1259.668000	29877.057351	27.202344	43.270748	0.000302	0.000195
	1260.726000	29876.253887	27.249147	43.306144	0.000302	0.000197
	1261.770000	29873.194595	27.292336	43.336174	0.000305	0.000199
	1262.815000	29871.131990	27.338357	43.370611	0.000308	0.000203
	1263.856000	29866.992287	27.382852	43.403373	0.000309	0.000205
	1264.903000	29889.536037	27.428738	43.428799	0.000309	0.000204
	1265.944000	29888.954771	27.476394	43.455912	0.000309	0.000200
	1266.991000	29887.623175	27.516808	43.483173	0.000298	0.000192
	1268.035000	29888.193169	27.561564	43.511331	0.000291	0.000187
	1269.081000	29886.755302	27.609893	43.541172	0.000294	0.000188
	1270.133000	29887.908171	27.656682	43.572463	0.000300	0.000195
	1271.177000	29889.429766	27.701736	43.597849	0.000296	0.000194
	1272.220000	29890.210690	27.746973	43.630970	0.000299	0.000196
	1273.262000	29896.052325	27.793983	43.661314	0.000302	0.000198
	1274.305000	29889.057821	27.838562	43.691160	0.000304	0.000200
	1275.357000	29900.053554	27.883682	43.722885	0.000306	0.000198
	1276.403000	29897.044179	27.924303	43.760524	0.000297	0.000192
	1277.447000	29895.714192	27.967691	43.785367	0.000297	0.000194
	1278.491000	29888.937059	28.013573	43.824221	0.000302	0.000201
	1279.536000	29911.675637	28.058307	43.853679	0.000305	0.000200
	1280.580000	29908.592194	28.104757	43.889304	0.000299	0.000196
	1281.625000	29900.404568	28.145953	43.912349	0.000292	0.000189
	1282.670000	29902.505816	28.187864	43.946239	0.000288	0.000186
	1283.718000	29903.185301	28.228067	43.973535	0.000291	0.000187
	1284.761000	29906.400777	28.272286	43.998307	0.000296	0.000191
	1285.805000	29906.811365	28.315462	44.024363	0.000297	0.000194
	1286.848000	29904.848590	28.354565	44.052992	0.000305	0.000202
	1287.902000	29917.852183	28.397518	44.081663	0.000308	0.000205
	1288.945000	29913.796209	28.437776	44.104476	0.000311	0.000206
	1289.991000	29928.913934	28.478955	44.129461	0.000309	0.000202
	1291.033000	29930.594933	28.521199	44.157779	0.000302	0.000197
	1292.078000	29928.902663	28.559053	44.173495	0.000300	0.000195
	1293.135000	29926.960819	28.597010	44.202896	0.000297	0.000192
	1294.179000	29928.820543	28.637745	44.234276	0.000297	0.000191
	1295.220000	29920.661899	28.681022	44.263035	0.000302	0.000200
	1296.264000	29946.293923	28.723139	44.292532	0.000306	0.000198
	1297.301000	29943.482597	28.766068	44.327344	0.000298	0.000197
	1298.360000	29941.688885	28.807519	44.357952	0.000300	0.000198
	1299.408000	29937.230373	28.853347	44.388055	0.000305	0.000202
	1300.465000	29930.855776	28.894549	44.419409	0.000308	0.000203
	1301.511000	29931.886276	28.938403	44.449923	0.000307	0.000204
	1302.573000	29939.334843	28.984706	44.482498	0.000306	0.000203
	1303.615000	29945.371306	29.030863	44.515629	0.000304	0.000199
	1304.660000	29943.498697	29.071770	44.539187	0.000303	0.000200
	1305.701000	29946.184433	29.124386	44.565684	0.000307	0.000202
	1306.748000	29928.091145	29.162791	44.586349	0.000302	0.000194
	1307.792000	29931.437043	29.214934	44.620392	0.000290	0.000186
	1308.836000	29951.702427	29.257457	44.644507	0.000294	0.000192
	1309.882000	29956.447547	29.310019	44.686708	0.000302	0.000200
	1310.927000	29957.890243	29.373640	44.713735	0.000311	0.000205
	1311.973000	29968.520473	29.435798	44.748888	0.000306	0.000199
	1313.016000	29968.122765	29.512331	44.799022	0.000305	0.000200
	1314.058000	29944.459960	29.602993	44.853142	0.000308	0.000203
	1315.121000	29903.075812	29.707556	44.908411	0.000309	0.000201
	1316.166000	29872.143166	29.814388	44.982272	0.000309	0.000202
	1317.224000	29845.744711	29.928130	45.070901	0.000309	0.000203
	1318.266000	29810.276265	30.037802	45.157031	0.000306	0.000200
	1319.309000	29795.990990	30.154863	45.261681	0.000301	0.000197
	1320.354000	29774.567908	30.264444	45.367535	0.000300	0.000201
	1321.398000	29738.173628	30.374498	45.473635	0.000308	0.000204
	1322.449000	29707.601659	30.489964	45.581771	0.000312	0.000206
	1323.499000	29658.424379	30.608194	45.693702	0.000309	0.000203
	1324.540000	29611.729954	30.715533	45.800600	0.000308	0.000205
	1325.602000	29553.155826	30.834895	45.912388	0.000305	0.000195
	1326.644000	29474.446744	30.936769	46.018939	0.000297	0.000191
	1327.690000	29395.209535	31.043330	46.124436	0.000298	0.000191
	1328.739000	29301.041387	31.143528	46.232009	0.000298	0.000195
	1329.782000	29205.453091	31.243114	46.337823	0.000297	0.000190
	1330.824000	29084.944476	31.337938	46.429490	0.000298	0.000194
	1331.866000	28943.519995	31.430926	46.517761	0.000303	0.000194
	1332.904000	28787.713650	31.511366	46.608679	0.000297	0.000189
	1333.949000	28570.948586	31.561993	46.689901	0.000292	0.000186
	1334.994000	28561.867333	31.595585	46.762211	0.000298	0.000194
	1336.038000	28679.166879	31.624790	46.814851	0.000306	0.000197
	1337.080000	28696.595161	31.653825	46.852571	0.000302	0.000200
	1338.132000	28571.945271	31.697522	46.888278	0.000303	0.000194
	1339.173000	28320.375203	31.766657	46.921228	0.000297	0.000192
	1340.216000	28034.900215	31.853704	46.960050	0.000298	0.000195
	1341.261000	27643.841241	31.961340	47.019621	0.000309	0.000202
	1342.328000	27030.274062	32.102554	47.090909	0.000314	0.000206
	1343.370000	25917.180724	32.285683	47.187435	0.000313	0.000208
	1344.413000	276.730381	32.318236	46.882237	0.000311	0.000203
	1345.457000	270.049915	32.410566	47.564218	0.000303	0.000194
	1346.511000	265.671947	32.466109	48.237886	0.000297	0.000192
	1347.552000	257.445748	32.536213	48.903086	0.000294	0.000187
	1348.595000	250.472236	32.619188	49.561584	0.000297	0.000192
	1349.637000	255.500700	32.693646	50.538965	0.000298	0.000193
	1350.679000	257.054484	32.777914	50.609934	0.000289	0.000186
	1351.721000	250.369187	32.875681	50.678057	0.000286	0.000181
	1352.765000	262.606243	32.960197	50.755977	0.000278	0.000172
	1353.809000	262.123201	33.036495	50.826479	0.000274	0.000173
	1354.860000	252.631432	32.901470	50.879283	0.000281	0.000181
	1355.904000	250.774942	33.032910	50.914986	0.000287	0.000185
	1356.969000	260.828650	33.010593	50.940375	0.000295	0.000191
